sep=;
ACCELEROMETER X (m/s²);ACCELEROMETER Y (m/s²);ACCELEROMETER Z (m/s²);Time since start in ms ;YYYY-MO-DD HH-MI-SS_SSS
8.0661;-5.8867;-6.2722;3005;2021-05-03 15:35:56:008
4.789;-4.8111;-4.4095;3055;2021-05-03 15:35:56:058
4.789;-4.8111;-4.4095;3105;2021-05-03 15:35:56:108
6.7044;-5.3085;-7.2347;3155;2021-05-03 15:35:56:158
5.6563;-5.302;-5.3313;3204;2021-05-03 15:35:56:207
5.6563;-5.302;-5.3313;3255;2021-05-03 15:35:56:258
5.9807;-5.518;-5.876;3305;2021-05-03 15:35:56:308
6.2985;-0.9685;-5.4803;3355;2021-05-03 15:35:56:358
6.2985;-0.9685;-5.4803;3405;2021-05-03 15:35:56:408
6.5685;-3.9253;-4.7495;3454;2021-05-03 15:35:56:457
7.8248;-8.3504;-4.5161;3505;2021-05-03 15:35:56:508
6.763;-6.0507;-5.6354;3555;2021-05-03 15:35:56:558
6.763;-6.0507;-5.6354;3605;2021-05-03 15:35:56:608
6.8049;-7.3801;-4.7022;3655;2021-05-03 15:35:56:658
6.6559;-4.792;-4.2479;3705;2021-05-03 15:35:56:708
6.6559;-4.792;-4.2479;3755;2021-05-03 15:35:56:758
7.0551;-3.7775;-4.8441;3804;2021-05-03 15:35:56:807
7.4885;-4.6866;-5.4708;3855;2021-05-03 15:35:56:858
6.2962;-4.7758;-5.1697;3905;2021-05-03 15:35:56:908
6.2962;-4.7758;-5.1697;3954;2021-05-03 15:35:56:957
6.6948;-5.296;-4.5244;4004;2021-05-03 15:35:57:007
7.0785;-5.4546;-3.7356;4055;2021-05-03 15:35:57:058
7.0785;-5.4546;-3.7356;4105;2021-05-03 15:35:57:108
7.3502;-6.2884;-2.8904;4155;2021-05-03 15:35:57:158
7.3682;-6.4967;-1.8633;4204;2021-05-03 15:35:57:207
6.8342;-6.3309;-0.4902;4255;2021-05-03 15:35:57:258
6.8342;-6.3309;-0.4902;4305;2021-05-03 15:35:57:308
7.1048;-6.2309;1.8405;4354;2021-05-03 15:35:57:357
6.8582;-6.7469;5.1439;4405;2021-05-03 15:35:57:408
6.8582;-6.7469;5.1439;4455;2021-05-03 15:35:57:458
5.8137;-6.1705;5.9089;4504;2021-05-03 15:35:57:507
6.1758;-5.955;4.8249;4554;2021-05-03 15:35:57:557
6.3602;-5.9472;4.3144;4605;2021-05-03 15:35:57:608
6.3602;-5.9472;4.3144;4655;2021-05-03 15:35:57:658
6.7624;-6.2249;3.2609;4706;2021-05-03 15:35:57:709
7.4077;-6.0968;2.3816;4755;2021-05-03 15:35:57:758
7.4077;-6.0968;2.3816;4804;2021-05-03 15:35:57:807
7.6662;-5.6413;1.5921;4855;2021-05-03 15:35:57:858
7.5148;-5.7563;1.4365;4905;2021-05-03 15:35:57:908
7.6058;-5.6952;1.5275;4955;2021-05-03 15:35:57:958
7.6058;-5.6952;1.5275;5005;2021-05-03 15:35:58:008
7.5776;-5.9699;1.7927;5054;2021-05-03 15:35:58:057
7.5507;-6.0208;2.0321;5104;2021-05-03 15:35:58:107
7.5507;-6.0208;2.0321;5155;2021-05-03 15:35:58:158
7.4909;-6.0466;2.0548;5205;2021-05-03 15:35:58:208
7.4466;-6.0041;1.8986;5254;2021-05-03 15:35:58:257
7.5046;-5.9843;1.8286;5304;2021-05-03 15:35:58:307
7.5046;-5.9843;1.8286;5354;2021-05-03 15:35:58:357
7.522;-5.9167;1.7268;5405;2021-05-03 15:35:58:408
7.5346;-6.0442;1.8352;5455;2021-05-03 15:35:58:458
7.5346;-6.0442;1.8352;5505;2021-05-03 15:35:58:508
7.4795;-6.0807;2.3391;5554;2021-05-03 15:35:58:557
7.3257;-6.1118;2.4672;5605;2021-05-03 15:35:58:608
7.2826;-6.1118;2.4271;5655;2021-05-03 15:35:58:658
7.2826;-6.1118;2.4271;5704;2021-05-03 15:35:58:707
7.4382;-6.0256;2.0836;5755;2021-05-03 15:35:58:758
7.5286;-6.0956;1.7238;5805;2021-05-03 15:35:58:808
7.5286;-6.0956;1.7238;5854;2021-05-03 15:35:58:857
7.6184;-5.9837;1.6759;5905;2021-05-03 15:35:58:908
7.6172;-5.852;1.6251;5955;2021-05-03 15:35:58:958
7.7159;-5.9059;1.3629;6005;2021-05-03 15:35:59:008
7.7159;-5.9059;1.3629;6054;2021-05-03 15:35:59:057
7.5429;-5.9107;1.2617;6105;2021-05-03 15:35:59:108
7.9589;-5.9274;0.2999;6155;2021-05-03 15:35:59:158
7.9589;-5.9274;0.2999;6204;2021-05-03 15:35:59:207
7.6184;-5.9215;1.0529;6254;2021-05-03 15:35:59:257
7.7063;-5.9957;0.7374;6304;2021-05-03 15:35:59:307
7.6926;-6.0783;1.0133;6355;2021-05-03 15:35:59:358
7.6926;-6.0783;1.0133;6405;2021-05-03 15:35:59:408
7.6423;-6.1399;1.0912;6454;2021-05-03 15:35:59:457
7.7297;-6.2932;0.8116;6505;2021-05-03 15:35:59:508
7.7297;-6.2932;0.8116;6555;2021-05-03 15:35:59:558
7.8434;-6.0926;0.3873;6605;2021-05-03 15:35:59:608
7.9601;-5.7784;-0.0856;6654;2021-05-03 15:35:59:657
7.8949;-5.5031;-0.6841;6705;2021-05-03 15:35:59:708
7.8949;-5.5031;-0.6841;6755;2021-05-03 15:35:59:758
7.8973;-5.3947;-1.4317;6805;2021-05-03 15:35:59:808
7.8673;-5.3056;-2.047;6855;2021-05-03 15:35:59:858
7.8673;-5.3056;-2.047;6905;2021-05-03 15:35:59:908
7.7973;-5.4929;-2.2637;6955;2021-05-03 15:35:59:958
7.8159;-5.8861;-2.1877;7004;2021-05-03 15:36:00:007
7.6028;-5.8287;-2.39;7055;2021-05-03 15:36:00:058
7.6028;-5.8287;-2.39;7105;2021-05-03 15:36:00:108
7.5759;-5.3738;-2.4696;7155;2021-05-03 15:36:00:158
7.6112;-5.4917;-2.7509;7204;2021-05-03 15:36:00:207
7.6112;-5.4917;-2.7509;7255;2021-05-03 15:36:00:258
7.677;-5.5887;-3.4812;7305;2021-05-03 15:36:00:308
7.1222;-5.5528;-3.2453;7355;2021-05-03 15:36:00:358
7.1222;-5.5528;-3.2453;7405;2021-05-03 15:36:00:408
7.5507;-5.1038;-3.2962;7454;2021-05-03 15:36:00:457
7.0725;-5.4504;-3.9953;7505;2021-05-03 15:36:00:508
7.2353;-5.0422;-3.614;7555;2021-05-03 15:36:00:558
7.2353;-5.0422;-3.614;7604;2021-05-03 15:36:00:607
7.4561;-5.7144;-3.9456;7655;2021-05-03 15:36:00:658
6.9522;-5.1822;-3.453;7705;2021-05-03 15:36:00:708
6.9522;-5.1822;-3.453;7754;2021-05-03 15:36:00:757
7.0479;-5.05;-3.5404;7805;2021-05-03 15:36:00:808
7.4418;-6.0172;-3.1933;7855;2021-05-03 15:36:00:858
7.692;-6.0041;-3.2926;7905;2021-05-03 15:36:00:908
7.692;-6.0041;-3.2926;7954;2021-05-03 15:36:00:957
7.5651;-5.8766;-3.7763;8005;2021-05-03 15:36:01:008
7.1772;-4.9458;-3.5482;8055;2021-05-03 15:36:01:058
7.1772;-4.9458;-3.5482;8105;2021-05-03 15:36:01:108
7.1503;-4.9656;-4.5322;8154;2021-05-03 15:36:01:157
7.6004;-5.4354;-4.5532;8204;2021-05-03 15:36:01:207
7.3795;-5.0572;-5.4582;8255;2021-05-03 15:36:01:258
7.3795;-5.0572;-5.4582;8305;2021-05-03 15:36:01:308
5.6701;-4.388;-5.2613;8355;2021-05-03 15:36:01:358
5.9424;-4.2156;-4.7866;8406;2021-05-03 15:36:01:409
5.9424;-4.2156;-4.7866;8454;2021-05-03 15:36:01:457
7.437;-5.0817;-5.0063;8505;2021-05-03 15:36:01:508
6.9887;-5.1846;-5.1433;8554;2021-05-03 15:36:01:557
6.8301;-5.1493;-4.1354;8605;2021-05-03 15:36:01:608
6.8301;-5.1493;-4.1354;8655;2021-05-03 15:36:01:658
7.0593;-5.5982;-4.0067;8705;2021-05-03 15:36:01:708
7.103;-5.457;-3.8708;8755;2021-05-03 15:36:01:758
7.103;-5.457;-3.8708;8805;2021-05-03 15:36:01:808
7.2544;-5.6473;-4.0594;8854;2021-05-03 15:36:01:857
6.9061;-6.1058;-4.2467;8905;2021-05-03 15:36:01:908
6.8684;-5.3056;-3.322;8955;2021-05-03 15:36:01:958
6.8684;-5.3056;-3.322;9004;2021-05-03 15:36:02:007
7.3568;-6.128;-4.2479;9055;2021-05-03 15:36:02:058
7.4244;-5.0428;-4.2946;9105;2021-05-03 15:36:02:108
7.4244;-5.0428;-4.2946;9154;2021-05-03 15:36:02:157
7.0838;-4.7734;-4.7441;9204;2021-05-03 15:36:02:207
6.6355;-5.2487;-4.1833;9255;2021-05-03 15:36:02:258
7.4172;-5.1481;-4.2641;9305;2021-05-03 15:36:02:308
7.4172;-5.1481;-4.2641;9354;2021-05-03 15:36:02:357
7.4268;-5.5833;-3.8146;9405;2021-05-03 15:36:02:408
7.8201;-5.214;-4.063;9455;2021-05-03 15:36:02:458
7.8201;-5.214;-4.063;9505;2021-05-03 15:36:02:508
8.0128;-4.7854;-4.2359;9555;2021-05-03 15:36:02:558
7.7225;-4.5711;-2.5265;9604;2021-05-03 15:36:02:607
8.2337;-4.6334;-1.2288;9655;2021-05-03 15:36:02:658
8.2337;-4.6334;-1.2288;9704;2021-05-03 15:36:02:707
8.8394;-4.2599;-0.7201;9755;2021-05-03 15:36:02:758
8.0308;-3.887;0.1203;9805;2021-05-03 15:36:02:808
8.0308;-3.887;0.1203;9855;2021-05-03 15:36:02:858
7.6716;-4.3467;0.428;9905;2021-05-03 15:36:02:908
9.244;-5.0326;0.1113;9954;2021-05-03 15:36:02:957
8.3432;-5.4887;-0.4878;10004;2021-05-03 15:36:03:007
8.3432;-5.4887;-0.4878;10055;2021-05-03 15:36:03:058
7.8578;-5.8724;0.1167;10104;2021-05-03 15:36:03:107
8.2762;-6.681;0.1508;10154;2021-05-03 15:36:03:157
8.2762;-6.681;0.1508;10204;2021-05-03 15:36:03:207
6.9599;-5.8371;-0.3729;10255;2021-05-03 15:36:03:258
8.0792;-6.8456;-0.5333;10305;2021-05-03 15:36:03:308
7.0557;-4.5645;-1.0714;10354;2021-05-03 15:36:03:357
7.0557;-4.5645;-1.0714;10405;2021-05-03 15:36:03:408
8.6898;-6.5858;-1.7119;10455;2021-05-03 15:36:03:458
8.3175;-5.6108;-1.886;10505;2021-05-03 15:36:03:508
8.3175;-5.6108;-1.886;10554;2021-05-03 15:36:03:557
6.9617;-5.3217;-1.9674;10605;2021-05-03 15:36:03:608
7.4627;-5.5049;-1.631;10655;2021-05-03 15:36:03:658
7.4627;-5.5049;-1.631;10705;2021-05-03 15:36:03:708
7.4484;-5.7587;-2.0758;10754;2021-05-03 15:36:03:757
7.2724;-6.1393;-3.4614;10805;2021-05-03 15:36:03:808
6.8833;-5.4091;-3.3178;10855;2021-05-03 15:36:03:858
6.8833;-5.4091;-3.3178;10905;2021-05-03 15:36:03:908
6.5404;-6.3799;-4.604;10954;2021-05-03 15:36:03:957
6.2572;-6.1866;-5.9873;11005;2021-05-03 15:36:04:008
6.2572;-6.1866;-5.9873;11055;2021-05-03 15:36:04:058
5.3965;-5.9005;-7.1006;11104;2021-05-03 15:36:04:107
4.8566;-4.6178;-6.3548;11155;2021-05-03 15:36:04:158
4.8662;-5.023;-6.4057;11205;2021-05-03 15:36:04:208
4.8662;-5.023;-6.4057;11254;2021-05-03 15:36:04:257
4.9069;-5.5587;-6.5404;11305;2021-05-03 15:36:04:308
4.9195;-5.7748;-7.2149;11355;2021-05-03 15:36:04:358
4.9195;-5.7748;-7.2149;11405;2021-05-03 15:36:04:408
5.6784;-5.2547;-6.6104;11454;2021-05-03 15:36:04:457
5.4013;-5.846;-6.9713;11505;2021-05-03 15:36:04:508
4.2377;-5.0769;-6.4871;11555;2021-05-03 15:36:04:558
4.2377;-5.0769;-6.4871;11605;2021-05-03 15:36:04:608
3.9474;-4.6106;-5.8628;11654;2021-05-03 15:36:04:657
6.2345;-4.3856;-5.5545;11705;2021-05-03 15:36:04:708
6.2345;-4.3856;-5.5545;11755;2021-05-03 15:36:04:758
6.6194;-4.8411;-4.9057;11804;2021-05-03 15:36:04:807
7.3125;-4.4095;-5.6725;11855;2021-05-03 15:36:04:858
7.0647;-4.2844;-6.3195;11905;2021-05-03 15:36:04:908
7.0647;-4.2844;-6.3195;11954;2021-05-03 15:36:04:957
6.2632;-4.3736;-5.1511;12004;2021-05-03 15:36:05:007
6.5912;-4.6112;-7.085;12055;2021-05-03 15:36:05:058
6.5912;-4.6112;-7.085;12105;2021-05-03 15:36:05:108
6.1124;-3.8182;-6.3129;12154;2021-05-03 15:36:05:157
6.1597;-4.1725;-6.9857;12205;2021-05-03 15:36:05:208
5.8478;-4.4394;-6.6152;12255;2021-05-03 15:36:05:258
5.8478;-4.4394;-6.6152;12305;2021-05-03 15:36:05:308
5.5312;-3.8337;-6.9426;12355;2021-05-03 15:36:05:358
5.8885;-3.5668;-7.0413;12404;2021-05-03 15:36:05:407
5.8885;-3.5668;-7.0413;12455;2021-05-03 15:36:05:458
4.7585;-3.4542;-7.7045;12505;2021-05-03 15:36:05:508
4.4484;-3.644;-8.2396;12555;2021-05-03 15:36:05:558
4.1486;-3.3094;-8.4545;12605;2021-05-03 15:36:05:608
4.1486;-3.3094;-8.4545;12655;2021-05-03 15:36:05:658
4.385;-2.6713;-8.1277;12705;2021-05-03 15:36:05:708
4.0264;-2.9066;-8.3881;12754;2021-05-03 15:36:05:757
4.0264;-2.9066;-8.3881;12805;2021-05-03 15:36:05:808
3.8924;-2.217;-8.6389;12855;2021-05-03 15:36:05:858
4.2066;-2.5301;-8.6915;12904;2021-05-03 15:36:05:907
3.4782;-2.2942;-8.8143;12954;2021-05-03 15:36:05:957
3.4782;-2.2942;-8.8143;13005;2021-05-03 15:36:06:008
3.8702;-2.1626;-8.2869;13055;2021-05-03 15:36:06:058
4.3323;-2.9054;-8.5928;13104;2021-05-03 15:36:06:107
4.3323;-2.9054;-8.5928;13155;2021-05-03 15:36:06:158
4.6986;-2.2841;-8.0008;13205;2021-05-03 15:36:06:208
5.0159;-2.4594;-7.6333;13255;2021-05-03 15:36:06:258
4.5885;-3.2693;-8.7502;13304;2021-05-03 15:36:06:307
4.5885;-3.2693;-8.7502;13355;2021-05-03 15:36:06:358
5.2379;-3.2603;-8.0882;13405;2021-05-03 15:36:06:408
4.6202;-2.8557;-8.0224;13455;2021-05-03 15:36:06:458
4.6202;-2.8557;-8.0224;13505;2021-05-03 15:36:06:508
5.2834;-3.1681;-8.1672;13554;2021-05-03 15:36:06:557
4.7106;-2.2553;-7.7458;13605;2021-05-03 15:36:06:608
4.9817;-2.8389;-8.0116;13655;2021-05-03 15:36:06:658
4.9817;-2.8389;-8.0116;13705;2021-05-03 15:36:06:708
4.6962;-2.7114;-8.6796;13754;2021-05-03 15:36:06:757
3.2597;-2.1931;-8.105;13805;2021-05-03 15:36:06:808
3.2597;-2.1931;-8.105;13855;2021-05-03 15:36:06:858
4.452;-2.551;-10.0491;13904;2021-05-03 15:36:06:907
3.5267;-1.831;-7.4484;13954;2021-05-03 15:36:06:957
4.7812;-2.1362;-8.2863;14005;2021-05-03 15:36:07:008
4.7812;-2.1362;-8.2863;14055;2021-05-03 15:36:07:058
4.5723;-2.6228;-8.9495;14104;2021-05-03 15:36:07:107
3.9654;-2.2356;-8.9106;14154;2021-05-03 15:36:07:157
3.9654;-2.2356;-8.9106;14205;2021-05-03 15:36:07:208
3.9409;-2.0776;-8.3151;14255;2021-05-03 15:36:07:258
4.1515;-2.1278;-8.5383;14305;2021-05-03 15:36:07:308
4.3114;-2.217;-8.7658;14354;2021-05-03 15:36:07:357
4.3114;-2.217;-8.7658;14405;2021-05-03 15:36:07:408
4.1827;-2.1985;-8.8286;14455;2021-05-03 15:36:07:458
4.2078;-2.1243;-8.4629;14505;2021-05-03 15:36:07:508
4.2078;-2.1243;-8.4629;14555;2021-05-03 15:36:07:558
4.3682;-1.8926;-8.3306;14605;2021-05-03 15:36:07:608
4.1492;-1.9315;-8.7382;14654;2021-05-03 15:36:07:657
4.4077;-2.0482;-8.4683;14705;2021-05-03 15:36:07:708
4.4077;-2.0482;-8.4683;14755;2021-05-03 15:36:07:758
4.4293;-2.1207;-8.4252;14805;2021-05-03 15:36:07:808
4.4616;-1.9249;-8.436;14854;2021-05-03 15:36:07:857
4.4616;-1.9249;-8.436;14905;2021-05-03 15:36:07:908
4.5837;-2.3559;-8.5796;14955;2021-05-03 15:36:07:958
4.2766;-2.3625;-8.6024;15004;2021-05-03 15:36:08:007
4.2766;-2.3625;-8.6024;15055;2021-05-03 15:36:08:058
4.2814;-2.0494;-8.4898;15104;2021-05-03 15:36:08:107
4.4604;-2.9682;-8.6975;15155;2021-05-03 15:36:08:158
4.8997;-2.9251;-8.4114;15205;2021-05-03 15:36:08:208
4.8997;-2.9251;-8.4114;15255;2021-05-03 15:36:08:258
4.2707;-2.2936;-8.1289;15304;2021-05-03 15:36:08:307
5.2714;-1.5455;-8.3779;15356;2021-05-03 15:36:08:359
5.2714;-1.5455;-8.3779;15404;2021-05-03 15:36:08:407
4.4568;-1.3102;-8.7083;15455;2021-05-03 15:36:08:458
3.8409;-1.4407;-8.9352;15505;2021-05-03 15:36:08:508
4.2437;-1.7861;-8.6185;15555;2021-05-03 15:36:08:558
4.2437;-1.7861;-8.6185;15605;2021-05-03 15:36:08:608
4.221;-1.5359;-8.7694;15654;2021-05-03 15:36:08:657
4.5651;-1.7687;-8.9082;15705;2021-05-03 15:36:08:708
4.5651;-1.7687;-8.9082;15755;2021-05-03 15:36:08:758
4.063;-1.4449;-8.7694;15805;2021-05-03 15:36:08:808
3.9367;-0.6363;-8.8095;15854;2021-05-03 15:36:08:857
3.9025;-0.9475;-8.9729;15905;2021-05-03 15:36:08:908
3.9025;-0.9475;-8.9729;15955;2021-05-03 15:36:08:958
4.0947;-0.6572;-8.8442;16005;2021-05-03 15:36:09:008
4.1132;-0.6219;-8.837;16054;2021-05-03 15:36:09:057
4.1132;-0.6219;-8.837;16105;2021-05-03 15:36:09:108
4.0707;-0.5261;-8.8184;16155;2021-05-03 15:36:09:158
4.1438;-0.6111;-9.0447;16205;2021-05-03 15:36:09:208
4.1025;-0.4244;-8.5503;16254;2021-05-03 15:36:09:257
4.1025;-0.4244;-8.5503;16305;2021-05-03 15:36:09:308
3.7122;-0.3172;-8.9848;16355;2021-05-03 15:36:09:358
3.7613;-0.0736;-8.9088;16404;2021-05-03 15:36:09:407
3.7613;-0.0736;-8.9088;16455;2021-05-03 15:36:09:458
3.8475;-0.3352;-9.074;16505;2021-05-03 15:36:09:508
3.8487;-0.2532;-8.2594;16554;2021-05-03 15:36:09:557
3.863;-0.2813;-9.0489;16605;2021-05-03 15:36:09:608
3.863;-0.2813;-9.0489;16655;2021-05-03 15:36:09:658
4.1049;-0.4549;-9.2051;16705;2021-05-03 15:36:09:708
3.8182;-0.7841;-9.1273;16755;2021-05-03 15:36:09:758
3.8182;-0.7841;-9.1273;16804;2021-05-03 15:36:09:807
3.8954;-1.0373;-9.5086;16855;2021-05-03 15:36:09:858
3.8972;-1.005;-8.7987;16904;2021-05-03 15:36:09:907
4.1324;-0.987;-8.9166;16955;2021-05-03 15:36:09:958
4.1324;-0.987;-8.9166;17004;2021-05-03 15:36:10:007
4.0163;-0.9355;-9.0255;17054;2021-05-03 15:36:10:057
3.893;-0.8727;-8.913;17105;2021-05-03 15:36:10:108
3.893;-0.8727;-8.913;17155;2021-05-03 15:36:10:158
3.9355;-0.8673;-8.9465;17205;2021-05-03 15:36:10:208
4.0139;-0.9379;-8.9633;17254;2021-05-03 15:36:10:257
3.9744;-0.8799;-8.925;17305;2021-05-03 15:36:10:308
3.9744;-0.8799;-8.925;17355;2021-05-03 15:36:10:358
3.9851;-0.8505;-8.9142;17404;2021-05-03 15:36:10:407
3.966;-0.8745;-8.9346;17455;2021-05-03 15:36:10:458
3.966;-0.8745;-8.9346;17505;2021-05-03 15:36:10:508
3.9618;-0.8853;-8.9675;17554;2021-05-03 15:36:10:557
4.0181;-0.8619;-8.925;17605;2021-05-03 15:36:10:608
4.0049;-0.844;-8.9286;17655;2021-05-03 15:36:10:658
4.0049;-0.844;-8.9286;17704;2021-05-03 15:36:10:707
3.9905;-0.835;-8.9405;17755;2021-05-03 15:36:10:758
3.9576;-0.8865;-8.9771;17805;2021-05-03 15:36:10:808
3.9576;-0.8865;-8.9771;17854;2021-05-03 15:36:10:857
3.9834;-0.8727;-8.9334;17904;2021-05-03 15:36:10:907
3.9857;-0.8655;-8.9088;17955;2021-05-03 15:36:10:958
3.9187;-0.9481;-8.9866;18005;2021-05-03 15:36:11:008
3.9187;-0.9481;-8.9866;18055;2021-05-03 15:36:11:058
3.8648;-0.9679;-8.937;18105;2021-05-03 15:36:11:108
3.8798;-0.914;-9.0064;18154;2021-05-03 15:36:11:157
3.8798;-0.914;-9.0064;18205;2021-05-03 15:36:11:208
3.8547;-0.9427;-8.9657;18255;2021-05-03 15:36:11:258
3.8283;-1.0193;-8.928;18304;2021-05-03 15:36:11:307
3.8361;-0.9822;-8.9256;18355;2021-05-03 15:36:11:358
3.8361;-0.9822;-8.9256;18405;2021-05-03 15:36:11:408
3.7439;-0.9685;-8.9567;18454;2021-05-03 15:36:11:457
3.717;-1.1432;-8.7574;18505;2021-05-03 15:36:11:508
3.717;-1.1432;-8.7574;18554;2021-05-03 15:36:11:557
3.705;-1.2827;-9.083;18605;2021-05-03 15:36:11:608
3.6577;-1.5401;-9.2308;18655;2021-05-03 15:36:11:658
3.6577;-1.5401;-9.2308;18704;2021-05-03 15:36:11:707
3.6559;-1.33;-8.9759;18754;2021-05-03 15:36:11:757
3.7086;-1.4395;-8.9118;18805;2021-05-03 15:36:11:808
3.8074;-1.5425;-8.9968;18855;2021-05-03 15:36:11:858
3.8074;-1.5425;-8.9968;18904;2021-05-03 15:36:11:907
3.954;-1.5502;-8.9106;18954;2021-05-03 15:36:11:957
4.066;-1.6221;-8.7771;19005;2021-05-03 15:36:12:008
4.066;-1.6221;-8.7771;19055;2021-05-03 15:36:12:058
4.1037;-1.6729;-8.9154;19105;2021-05-03 15:36:12:108
3.9941;-1.561;-8.7712;19155;2021-05-03 15:36:12:158
4.1857;-1.5508;-8.8011;19204;2021-05-03 15:36:12:207
4.1857;-1.5508;-8.8011;19255;2021-05-03 15:36:12:258
4.2318;-1.5365;-8.7616;19305;2021-05-03 15:36:12:308
4.1659;-1.5245;-8.8113;19354;2021-05-03 15:36:12:357
4.1659;-1.5245;-8.8113;19405;2021-05-03 15:36:12:408
4.197;-1.4461;-8.8442;19455;2021-05-03 15:36:12:458
4.2581;-1.3898;-8.658;19505;2021-05-03 15:36:12:508
4.5298;-1.3785;-8.8867;19554;2021-05-03 15:36:12:557
4.5298;-1.3785;-8.8867;19605;2021-05-03 15:36:12:608
4.44;-1.409;-8.4414;19655;2021-05-03 15:36:12:658
4.1204;-1.4192;-8.9447;19704;2021-05-03 15:36:12:707
4.1204;-1.4192;-8.9447;19754;2021-05-03 15:36:12:757
4.288;-1.1983;-8.8149;19805;2021-05-03 15:36:12:808
3.9079;-0.7057;-8.7712;19855;2021-05-03 15:36:12:858
3.7146;-0.811;-9.0746;19904;2021-05-03 15:36:12:907
3.7146;-0.811;-9.0746;19955;2021-05-03 15:36:12:958
3.9217;-1.0936;-9.2488;20004;2021-05-03 15:36:13:007
3.8421;-0.7075;-8.5264;20055;2021-05-03 15:36:13:058
3.8421;-0.7075;-8.5264;20104;2021-05-03 15:36:13:107
4.9231;-1.2647;-9.4493;20154;2021-05-03 15:36:13:157
3.2453;-0.8966;-8.8292;20205;2021-05-03 15:36:13:208
2.9772;0.0317;-8.9908;20255;2021-05-03 15:36:13:258
2.9772;0.0317;-8.9908;20304;2021-05-03 15:36:13:307
3.368;-0.3388;-9.3793;20355;2021-05-03 15:36:13:358
3.5644;-0.5758;-9.229;20405;2021-05-03 15:36:13:408
3.5644;-0.5758;-9.229;20455;2021-05-03 15:36:13:458
3.5919;-0.7087;-9.2901;20505;2021-05-03 15:36:13:508
3.7326;-0.2346;-8.9292;20555;2021-05-03 15:36:13:558
3.6404;-0.1754;-8.9052;20605;2021-05-03 15:36:13:608
3.6404;-0.1754;-8.9052;20655;2021-05-03 15:36:13:658
3.7816;-0.2071;-8.9405;20705;2021-05-03 15:36:13:708
3.7786;-0.3286;-8.5096;20755;2021-05-03 15:36:13:758
3.7786;-0.3286;-8.5096;20805;2021-05-03 15:36:13:808
3.7978;-0.483;-8.9956;20855;2021-05-03 15:36:13:858
3.723;-0.2454;-8.6832;20904;2021-05-03 15:36:13:907
3.8786;-0.3962;-9.165;20955;2021-05-03 15:36:13:958
3.8786;-0.3962;-9.165;21005;2021-05-03 15:36:14:008
3.4901;-1.0247;-9.9683;21054;2021-05-03 15:36:14:057
3.7936;-0.8703;-8.8969;21105;2021-05-03 15:36:14:108
3.7936;-0.8703;-8.8969;21155;2021-05-03 15:36:14:158
4.1144;-0.9433;-8.9088;21205;2021-05-03 15:36:14:208
3.8487;-0.7248;-9.0716;21254;2021-05-03 15:36:14:257
3.7745;-0.7045;-9.0633;21305;2021-05-03 15:36:14:308
3.7745;-0.7045;-9.0633;21355;2021-05-03 15:36:14:358
3.9576;-0.7608;-8.91;21405;2021-05-03 15:36:14:408
4.0342;-0.7895;-8.9376;21454;2021-05-03 15:36:14:457
4.0342;-0.7895;-8.9376;21505;2021-05-03 15:36:14:508
3.9654;-0.7817;-9.0166;21555;2021-05-03 15:36:14:558
3.9768;-0.6889;-8.9304;21604;2021-05-03 15:36:14:607
3.9953;-0.7655;-8.9166;21655;2021-05-03 15:36:14:658
3.9953;-0.7655;-8.9166;21705;2021-05-03 15:36:14:708
4.0055;-0.7745;-8.9531;21755;2021-05-03 15:36:14:758
3.9959;-0.7805;-8.9537;21804;2021-05-03 15:36:14:807
3.9959;-0.7805;-8.9537;21855;2021-05-03 15:36:14:858
4.0223;-0.7608;-8.9154;21905;2021-05-03 15:36:14:908
4.0282;-0.7919;-8.9334;21955;2021-05-03 15:36:14:958
4.0342;-0.7901;-8.9352;22004;2021-05-03 15:36:15:007
4.0342;-0.7901;-8.9352;22055;2021-05-03 15:36:15:058
3.9995;-0.8511;-8.8915;22105;2021-05-03 15:36:15:108
4.1665;-0.7129;-8.901;22154;2021-05-03 15:36:15:157
4.1665;-0.7129;-8.901;22205;2021-05-03 15:36:15:208
4.0294;-0.8003;-8.9064;22255;2021-05-03 15:36:15:258
4.0486;-0.8637;-8.8986;22305;2021-05-03 15:36:15:308
4.0486;-0.8637;-8.8986;22354;2021-05-03 15:36:15:357
4.1138;-0.8015;-8.9052;22405;2021-05-03 15:36:15:408
4.127;-0.8033;-8.8813;22455;2021-05-03 15:36:15:458
4.0917;-0.8176;-8.8562;22504;2021-05-03 15:36:15:507
4.0917;-0.8176;-8.8562;22555;2021-05-03 15:36:15:558
4.0857;-0.8613;-8.937;22605;2021-05-03 15:36:15:608
4.13;-0.8158;-8.8795;22655;2021-05-03 15:36:15:658
4.13;-0.8158;-8.8795;22704;2021-05-03 15:36:15:707
4.1102;-0.8434;-8.8585;22755;2021-05-03 15:36:15:758
4.142;-0.8631;-8.8825;22805;2021-05-03 15:36:15:808
4.0606;-0.8589;-8.8915;22854;2021-05-03 15:36:15:857
4.0606;-0.8589;-8.8915;22905;2021-05-03 15:36:15:908
4.118;-0.8559;-8.8687;22955;2021-05-03 15:36:15:958
4.1264;-0.8775;-8.9052;23005;2021-05-03 15:36:16:008
4.1264;-0.8775;-8.9052;23054;2021-05-03 15:36:16:057
4.148;-0.8398;-8.8729;23105;2021-05-03 15:36:16:108
4.0235;-0.9146;-8.8861;23155;2021-05-03 15:36:16:158
4.1031;-0.9062;-8.8627;23204;2021-05-03 15:36:16:207
4.1031;-0.9062;-8.8627;23255;2021-05-03 15:36:16:258
4.1192;-0.8673;-8.8825;23305;2021-05-03 15:36:16:308
4.0749;-0.9212;-8.8801;23355;2021-05-03 15:36:16:358
4.0749;-0.9212;-8.8801;23404;2021-05-03 15:36:16:407
4.0941;-0.902;-8.8651;23454;2021-05-03 15:36:16:457
4.1749;-0.9206;-8.9202;23505;2021-05-03 15:36:16:508
4.0869;-0.8511;-8.8322;23555;2021-05-03 15:36:16:558
4.0869;-0.8511;-8.8322;23605;2021-05-03 15:36:16:608
4.1216;-0.9152;-8.9136;23654;2021-05-03 15:36:16:657
4.1138;-0.9188;-8.8939;23705;2021-05-03 15:36:16:708
4.1138;-0.9188;-8.8939;23755;2021-05-03 15:36:16:758
4.1043;-0.8511;-8.8544;23805;2021-05-03 15:36:16:808
4.0989;-0.8894;-8.9118;23855;2021-05-03 15:36:16:858
4.0815;-0.8601;-8.8747;23905;2021-05-03 15:36:16:908
4.0815;-0.8601;-8.8747;23954;2021-05-03 15:36:16:957
4.0324;-0.8637;-8.9382;24005;2021-05-03 15:36:17:008
4.0199;-0.9439;-8.8807;24055;2021-05-03 15:36:17:058
4.0199;-0.9439;-8.8807;24104;2021-05-03 15:36:17:107
4.0606;-0.8505;-9.0172;24155;2021-05-03 15:36:17:158
4.0408;-0.9625;-9.089;24205;2021-05-03 15:36:17:208
4.1486;-0.8481;-8.8909;24255;2021-05-03 15:36:17:258
4.1486;-0.8481;-8.8909;24304;2021-05-03 15:36:17:307
4.1905;-0.7727;-8.8556;24355;2021-05-03 15:36:17:358
4.1899;-0.7626;-8.9645;24405;2021-05-03 15:36:17:408
4.1899;-0.7626;-8.9645;24455;2021-05-03 15:36:17:458
4.2282;-0.6069;-8.8568;24504;2021-05-03 15:36:17:507
4.2473;-0.5285;-8.9884;24555;2021-05-03 15:36:17:558
4.1384;-0.346;-8.6173;24605;2021-05-03 15:36:17:608
4.1384;-0.346;-8.6173;24655;2021-05-03 15:36:17:658
4.1216;-0.4363;-9.0674;24704;2021-05-03 15:36:17:707
3.9989;-0.3118;-8.8532;24755;2021-05-03 15:36:17:758
3.9989;-0.3118;-8.8532;24805;2021-05-03 15:36:17:808
3.9379;-0.2879;-8.8699;24855;2021-05-03 15:36:17:858
3.9235;-0.4411;-9.0393;24905;2021-05-03 15:36:17:908
3.8343;-0.4399;-8.9148;24954;2021-05-03 15:36:17:957
3.8343;-0.4399;-8.9148;25004;2021-05-03 15:36:18:007
3.7104;-0.4351;-8.9908;25055;2021-05-03 15:36:18:058
3.7553;-0.4441;-8.9789;25105;2021-05-03 15:36:18:108
3.7553;-0.4441;-8.9789;25154;2021-05-03 15:36:18:157
3.6859;-0.4609;-9.0782;25205;2021-05-03 15:36:18:208
3.7344;-0.5261;-9.0016;25255;2021-05-03 15:36:18:258
3.6398;-0.4531;-8.9501;25304;2021-05-03 15:36:18:307
3.6398;-0.4531;-8.9501;25355;2021-05-03 15:36:18:358
3.6829;-0.3795;-9.0782;25405;2021-05-03 15:36:18:408
3.7607;-0.3286;-9.0429;25455;2021-05-03 15:36:18:458
3.7607;-0.3286;-9.0429;25505;2021-05-03 15:36:18:508
3.8684;-0.3196;-8.8334;25555;2021-05-03 15:36:18:558
3.8104;-0.3304;-9.0728;25605;2021-05-03 15:36:18:608
4.0085;-0.1969;-8.849;25654;2021-05-03 15:36:18:657
4.0085;-0.1969;-8.849;25705;2021-05-03 15:36:18:708
3.6428;-0.4405;-9.4607;25755;2021-05-03 15:36:18:758
3.863;-0.5369;-9.1961;25805;2021-05-03 15:36:18:808
3.863;-0.5369;-9.1961;25855;2021-05-03 15:36:18:858
3.814;-0.6213;-8.8131;25904;2021-05-03 15:36:18:907
3.8654;-0.6027;-8.8041;25955;2021-05-03 15:36:18:958
3.7254;-0.6662;-9.2326;26005;2021-05-03 15:36:19:008
3.7254;-0.6662;-9.2326;26055;2021-05-03 15:36:19:058
3.5877;-0.8009;-9.3781;26104;2021-05-03 15:36:19:107
3.7727;-0.7889;-9.0375;26155;2021-05-03 15:36:19:158
3.7727;-0.7889;-9.0375;26205;2021-05-03 15:36:19:208
3.7326;-0.8416;-9.0519;26255;2021-05-03 15:36:19:258
3.7397;-0.7033;-9.0525;26305;2021-05-03 15:36:19:308
3.7397;-0.7033;-9.0525;26354;2021-05-03 15:36:19:357
3.7559;-0.6901;-9.0627;26404;2021-05-03 15:36:19:407
3.7344;-0.7458;-9.0615;26455;2021-05-03 15:36:19:458
3.7936;-0.7266;-9.0327;26505;2021-05-03 15:36:19:508
3.7936;-0.7266;-9.0327;26554;2021-05-03 15:36:19:557
3.8056;-0.6554;-9.0285;26605;2021-05-03 15:36:19:608
3.79;-0.6524;-9.0423;26655;2021-05-03 15:36:19:658
3.79;-0.6524;-9.0423;26705;2021-05-03 15:36:19:708
3.8164;-0.6692;-9.0214;26754;2021-05-03 15:36:19:757
3.808;-0.6734;-9.0453;26804;2021-05-03 15:36:19:807
3.8373;-0.6165;-9.0148;26855;2021-05-03 15:36:19:858
3.8373;-0.6165;-9.0148;26905;2021-05-03 15:36:19:908
3.8475;-0.6327;-9.0076;26954;2021-05-03 15:36:19:957
3.8397;-0.6321;-9.0249;27005;2021-05-03 15:36:20:008
3.8397;-0.6321;-9.0249;27055;2021-05-03 15:36:20:058
3.8409;-0.6159;-9.0208;27104;2021-05-03 15:36:20:107
3.8696;-0.589;-8.9974;27155;2021-05-03 15:36:20:158
3.8834;-0.5938;-9.016;27205;2021-05-03 15:36:20:208
3.8834;-0.5938;-9.016;27254;2021-05-03 15:36:20:257
3.8702;-0.5968;-9.0046;27304;2021-05-03 15:36:20:307
3.8786;-0.5824;-9.0279;27355;2021-05-03 15:36:20:358
3.8786;-0.5824;-9.0279;27405;2021-05-03 15:36:20:408
3.89;-0.5537;-8.9807;27455;2021-05-03 15:36:20:458
3.9169;-0.574;-8.9866;27504;2021-05-03 15:36:20:507
3.9025;-0.5728;-9.0058;27555;2021-05-03 15:36:20:558
3.9025;-0.5728;-9.0058;27605;2021-05-03 15:36:20:608
3.8732;-0.5602;-9.0028;27654;2021-05-03 15:36:20:657
3.9253;-0.5495;-8.9789;27705;2021-05-03 15:36:20:708
3.9253;-0.5495;-8.9789;27755;2021-05-03 15:36:20:758
3.9355;-0.5573;-9.001;27805;2021-05-03 15:36:20:808
3.9037;-0.5525;-8.9872;27855;2021-05-03 15:36:20:858
3.9079;-0.5519;-9.0249;27905;2021-05-03 15:36:20:908
3.9079;-0.5519;-9.0249;27955;2021-05-03 15:36:20:958
3.9205;-0.5309;-8.9687;28004;2021-05-03 15:36:21:007
3.9421;-0.5501;-8.9771;28055;2021-05-03 15:36:21:058
3.9421;-0.5501;-8.9771;28105;2021-05-03 15:36:21:108
3.9043;-0.571;-9.0004;28154;2021-05-03 15:36:21:157
3.8642;-0.5602;-9.0106;28205;2021-05-03 15:36:21:208
3.9145;-0.5614;-8.9836;28254;2021-05-03 15:36:21:257
3.9145;-0.5614;-8.9836;28305;2021-05-03 15:36:21:308
3.9043;-0.5896;-9.007;28355;2021-05-03 15:36:21:358
3.8601;-0.5794;-9.0046;28404;2021-05-03 15:36:21:407
3.8601;-0.5794;-9.0046;28455;2021-05-03 15:36:21:458
3.8924;-0.5806;-9.001;28505;2021-05-03 15:36:21:508
3.8343;-0.6285;-9.0567;28555;2021-05-03 15:36:21:558
3.8648;-0.5938;-8.9801;28604;2021-05-03 15:36:21:607
3.8648;-0.5938;-8.9801;28655;2021-05-03 15:36:21:658
3.8487;-0.6351;-9.0142;28705;2021-05-03 15:36:21:708
3.7972;-0.6668;-9.0327;28755;2021-05-03 15:36:21:758
3.7972;-0.6668;-9.0327;28805;2021-05-03 15:36:21:808
3.7852;-0.6578;-9.0351;28855;2021-05-03 15:36:21:858
3.8211;-0.659;-9.0172;28904;2021-05-03 15:36:21:907
3.8014;-0.6692;-9.0333;28955;2021-05-03 15:36:21:958
3.8014;-0.6692;-9.0333;29005;2021-05-03 15:36:22:008
3.8056;-0.656;-9.0202;29055;2021-05-03 15:36:22:058
3.7792;-0.6817;-9.0776;29104;2021-05-03 15:36:22:107
3.7792;-0.6817;-9.0776;29155;2021-05-03 15:36:22:158
3.8253;-0.6363;-8.9944;29205;2021-05-03 15:36:22:208
3.8277;-0.6572;-9.0237;29254;2021-05-03 15:36:22:257
3.7978;-0.6602;-9.0315;29305;2021-05-03 15:36:22:308
3.7978;-0.6602;-9.0315;29355;2021-05-03 15:36:22:358
3.8026;-0.6381;-9.0411;29405;2021-05-03 15:36:22:408
3.8571;-0.6267;-9.004;29454;2021-05-03 15:36:22:457
3.8571;-0.6267;-9.004;29505;2021-05-03 15:36:22:508
3.8463;-0.6369;-9.0267;29555;2021-05-03 15:36:22:558
3.8008;-0.6315;-9.0249;29605;2021-05-03 15:36:22:608
3.8008;-0.6315;-9.0249;29654;2021-05-03 15:36:22:657
3.8553;-0.6279;-9.0435;29705;2021-05-03 15:36:22:708
3.8415;-0.6099;-9.001;29755;2021-05-03 15:36:22:758
3.875;-0.5991;-8.998;29805;2021-05-03 15:36:22:808
3.875;-0.5991;-8.998;29854;2021-05-03 15:36:22:857
3.863;-0.6189;-9.0154;29905;2021-05-03 15:36:22:908
3.8355;-0.5997;-9.0327;29955;2021-05-03 15:36:22:958
3.8355;-0.5997;-9.0327;30005;2021-05-03 15:36:23:008
3.8906;-0.58;-8.9926;30054;2021-05-03 15:36:23:057
3.8984;-0.5884;-9.0046;30104;2021-05-03 15:36:23:107
3.8792;-0.5734;-9.0088;30155;2021-05-03 15:36:23:158
3.8792;-0.5734;-9.0088;30205;2021-05-03 15:36:23:208
3.8942;-0.5632;-9.0022;30255;2021-05-03 15:36:23:258
3.9085;-0.5596;-8.9944;30304;2021-05-03 15:36:23:307
3.9085;-0.5596;-8.9944;30355;2021-05-03 15:36:23:358
3.9139;-0.5567;-8.9962;30405;2021-05-03 15:36:23:408
3.9121;-0.5489;-9.0004;30455;2021-05-03 15:36:23:458
3.9175;-0.5381;-8.9926;30504;2021-05-03 15:36:23:507
3.9175;-0.5381;-8.9926;30554;2021-05-03 15:36:23:557
3.9271;-0.5369;-8.9777;30605;2021-05-03 15:36:23:608
3.9193;-0.5423;-9.0315;30655;2021-05-03 15:36:23:658
3.9193;-0.5423;-9.0315;30705;2021-05-03 15:36:23:708
3.9109;-0.5136;-8.9669;30754;2021-05-03 15:36:23:757
3.9606;-0.5118;-8.9669;30805;2021-05-03 15:36:23:808
3.9325;-0.5441;-8.995;30855;2021-05-03 15:36:23:858
3.9325;-0.5441;-8.995;30905;2021-05-03 15:36:23:908
3.9002;-0.5231;-9.0052;30955;2021-05-03 15:36:23:958
3.9456;-0.5154;-8.9657;31005;2021-05-03 15:36:24:008
3.9456;-0.5154;-8.9657;31055;2021-05-03 15:36:24:058
3.9415;-0.5423;-8.9956;31105;2021-05-03 15:36:24:108
3.9079;-0.5363;-8.9956;31154;2021-05-03 15:36:24:157
3.9097;-0.5351;-8.995;31205;2021-05-03 15:36:24:208
3.9097;-0.5351;-8.995;31255;2021-05-03 15:36:24:258
3.9163;-0.5471;-8.992;31304;2021-05-03 15:36:24:307
3.8978;-0.5698;-9.004;31354;2021-05-03 15:36:24:357
3.8978;-0.5698;-9.004;31405;2021-05-03 15:36:24:408
3.8798;-0.5764;-9.0172;31455;2021-05-03 15:36:24:458
3.869;-0.5728;-8.9884;31504;2021-05-03 15:36:24:507
3.8188;-0.6333;-9.0686;31555;2021-05-03 15:36:24:558
3.8188;-0.6333;-9.0686;31605;2021-05-03 15:36:24:608
3.8493;-0.6003;-8.9848;31655;2021-05-03 15:36:24:658
3.8211;-0.653;-9.0231;31704;2021-05-03 15:36:24:707
3.8211;-0.653;-9.0231;31755;2021-05-03 15:36:24:758
3.7625;-0.6835;-9.0453;31805;2021-05-03 15:36:24:808
3.7457;-0.6812;-9.0531;31855;2021-05-03 15:36:24:858
3.7894;-0.6782;-9.0166;31904;2021-05-03 15:36:24:907
3.7894;-0.6782;-9.0166;31955;2021-05-03 15:36:24:958
3.7727;-0.6913;-9.0477;32005;2021-05-03 15:36:25:008
3.7499;-0.6788;-9.0501;32055;2021-05-03 15:36:25:058
3.7499;-0.6788;-9.0501;32105;2021-05-03 15:36:25:108
3.7846;-0.6734;-9.0393;32154;2021-05-03 15:36:25:157
3.7882;-0.6704;-9.0429;32205;2021-05-03 15:36:25:208
3.7846;-0.6638;-9.0411;32255;2021-05-03 15:36:25:258
3.7846;-0.6638;-9.0411;32305;2021-05-03 15:36:25:308
3.7541;-0.6794;-9.0549;32354;2021-05-03 15:36:25:357
3.8217;-0.6309;-9.01;32405;2021-05-03 15:36:25:408
3.8217;-0.6309;-9.01;32455;2021-05-03 15:36:25:458
3.8223;-0.6602;-9.0315;32505;2021-05-03 15:36:25:508
3.7769;-0.6572;-9.0327;32555;2021-05-03 15:36:25:558
3.8116;-0.6099;-9.0429;32604;2021-05-03 15:36:25:607
3.8116;-0.6099;-9.0429;32655;2021-05-03 15:36:25:658
3.8319;-0.6428;-9.022;32705;2021-05-03 15:36:25:708
3.8409;-0.5794;-8.983;32754;2021-05-03 15:36:25:757
3.8409;-0.5794;-8.983;32805;2021-05-03 15:36:25:808
3.8229;-0.592;-9.1159;32855;2021-05-03 15:36:25:858
3.8607;-0.571;-8.9304;32905;2021-05-03 15:36:25:908
3.9367;-0.6883;-9.0459;32954;2021-05-03 15:36:25:957
3.9367;-0.6883;-9.0459;33005;2021-05-03 15:36:26:008
3.8259;-0.5602;-8.9998;33055;2021-05-03 15:36:26:058
3.8086;-0.5183;-9.0267;33105;2021-05-03 15:36:26:108
3.8086;-0.5183;-9.0267;33155;2021-05-03 15:36:26:158
3.89;-0.571;-9.0112;33204;2021-05-03 15:36:26:207
3.9205;-0.6135;-8.9801;33255;2021-05-03 15:36:26:258
3.8798;-0.5549;-8.998;33305;2021-05-03 15:36:26:308
3.8798;-0.5549;-8.998;33354;2021-05-03 15:36:26:357
3.8678;-0.5225;-9.0309;33405;2021-05-03 15:36:26:408
3.9002;-0.5429;-8.9771;33455;2021-05-03 15:36:26:458
3.9002;-0.5429;-8.9771;33505;2021-05-03 15:36:26:508
3.9319;-0.5686;-8.9956;33555;2021-05-03 15:36:26:558
3.9085;-0.516;-8.995;33605;2021-05-03 15:36:26:608
3.9085;-0.516;-8.995;33654;2021-05-03 15:36:26:657
3.902;-0.5219;-8.998;33705;2021-05-03 15:36:26:708
3.9229;-0.5417;-8.9908;33755;2021-05-03 15:36:26:758
3.9253;-0.5375;-9.0046;33804;2021-05-03 15:36:26:807
3.9253;-0.5375;-9.0046;33854;2021-05-03 15:36:26:857
3.9025;-0.5297;-8.9824;33905;2021-05-03 15:36:26:908
3.8744;-0.5632;-9.0393;33955;2021-05-03 15:36:26:958
3.8744;-0.5632;-9.0393;34005;2021-05-03 15:36:27:008
3.8954;-0.5399;-8.9675;34055;2021-05-03 15:36:27:058
3.9097;-0.5584;-8.992;34105;2021-05-03 15:36:27:108
3.8636;-0.5848;-9.0184;34155;2021-05-03 15:36:27:158
3.8636;-0.5848;-9.0184;34204;2021-05-03 15:36:27:207
3.8199;-0.5854;-9.0267;34255;2021-05-03 15:36:27:258
3.8684;-0.589;-8.995;34305;2021-05-03 15:36:27:308
3.8684;-0.589;-8.995;34354;2021-05-03 15:36:27:357
3.8535;-0.6141;-9.0261;34405;2021-05-03 15:36:27:408
3.796;-0.647;-9.0387;34455;2021-05-03 15:36:27:458
3.7541;-0.6644;-9.0441;34505;2021-05-03 15:36:27:508
3.7541;-0.6644;-9.0441;34555;2021-05-03 15:36:27:558
3.8032;-0.6698;-9.0441;34604;2021-05-03 15:36:27:607
3.711;-0.7189;-9.0615;34655;2021-05-03 15:36:27:658
3.711;-0.7189;-9.0615;34705;2021-05-03 15:36:27:708
3.7362;-0.7003;-9.0363;34754;2021-05-03 15:36:27:757
3.7302;-0.723;-9.0495;34804;2021-05-03 15:36:27:807
3.7134;-0.7087;-9.0621;34855;2021-05-03 15:36:27:858
3.7134;-0.7087;-9.0621;34905;2021-05-03 15:36:27:908
3.7403;-0.7027;-9.0489;34954;2021-05-03 15:36:27:957
3.7553;-0.6937;-9.0429;35005;2021-05-03 15:36:28:008
3.7553;-0.6937;-9.0429;35055;2021-05-03 15:36:28:058
3.7451;-0.6973;-9.0585;35105;2021-05-03 15:36:28:108
3.7296;-0.6859;-9.0537;35154;2021-05-03 15:36:28:157
3.7882;-0.6734;-9.0453;35205;2021-05-03 15:36:28:208
3.7882;-0.6734;-9.0453;35255;2021-05-03 15:36:28:258
3.7553;-0.677;-9.0495;35304;2021-05-03 15:36:28:307
3.787;-0.6422;-9.0327;35355;2021-05-03 15:36:28:358
3.787;-0.6422;-9.0327;35405;2021-05-03 15:36:28:408
3.7882;-0.662;-9.0339;35455;2021-05-03 15:36:28:458
3.7739;-0.6434;-9.0429;35505;2021-05-03 15:36:28:508
3.796;-0.6285;-9.0345;35554;2021-05-03 15:36:28:557
3.796;-0.6285;-9.0345;35605;2021-05-03 15:36:28:608
3.8307;-0.6237;-9.019;35655;2021-05-03 15:36:28:658
3.8182;-0.6135;-9.0333;35705;2021-05-03 15:36:28:708
3.8182;-0.6135;-9.0333;35754;2021-05-03 15:36:28:757
3.8265;-0.5956;-9.0196;35805;2021-05-03 15:36:28:808
3.8523;-0.5872;-9.0184;35855;2021-05-03 15:36:28:858
3.8583;-0.58;-9.0166;35905;2021-05-03 15:36:28:908
3.8583;-0.58;-9.0166;35955;2021-05-03 15:36:28:958
3.8571;-0.571;-9.0124;36004;2021-05-03 15:36:29:007
3.8648;-0.5632;-9.0172;36055;2021-05-03 15:36:29:058
3.8648;-0.5632;-9.0172;36105;2021-05-03 15:36:29:108
3.8792;-0.5519;-9.0064;36155;2021-05-03 15:36:29:158
3.881;-0.5459;-8.9932;36204;2021-05-03 15:36:29:207
3.8762;-0.5525;-9.0423;36255;2021-05-03 15:36:29:258
3.8762;-0.5525;-9.0423;36305;2021-05-03 15:36:29:308
3.8762;-0.5207;-8.9729;36354;2021-05-03 15:36:29:357
3.9241;-0.5237;-8.983;36405;2021-05-03 15:36:29:408
3.9241;-0.5237;-8.983;36455;2021-05-03 15:36:29:458
3.9002;-0.5417;-9.0106;36505;2021-05-03 15:36:29:508
3.8666;-0.5315;-9.0166;36555;2021-05-03 15:36:29:558
3.9037;-0.5273;-8.9812;36604;2021-05-03 15:36:29:607
3.9037;-0.5273;-8.9812;36655;2021-05-03 15:36:29:658
3.9061;-0.5465;-9.007;36705;2021-05-03 15:36:29:708
3.866;-0.5507;-9.0196;36754;2021-05-03 15:36:29:757
3.866;-0.5507;-9.0196;36804;2021-05-03 15:36:29:807
3.8583;-0.5584;-9.0064;36855;2021-05-03 15:36:29:858
3.8726;-0.568;-9.0124;36905;2021-05-03 15:36:29:908
3.8511;-0.5878;-9.0184;36955;2021-05-03 15:36:29:958
3.8511;-0.5878;-9.0184;37005;2021-05-03 15:36:30:008
3.8283;-0.6027;-9.0309;37055;2021-05-03 15:36:30:058
3.7978;-0.6135;-9.0172;37104;2021-05-03 15:36:30:107
3.7978;-0.6135;-9.0172;37154;2021-05-03 15:36:30:157
3.7996;-0.6357;-9.0549;37205;2021-05-03 15:36:30:208
3.7655;-0.6626;-9.0387;37255;2021-05-03 15:36:30:258
3.7655;-0.6626;-9.0387;37304;2021-05-03 15:36:30:307
3.7703;-0.6644;-9.0345;37355;2021-05-03 15:36:30:358
3.7302;-0.7153;-9.0573;37405;2021-05-03 15:36:30:408
3.6937;-0.7183;-9.0728;37455;2021-05-03 15:36:30:458
3.6937;-0.7183;-9.0728;37504;2021-05-03 15:36:30:507
3.699;-0.7266;-9.0573;37555;2021-05-03 15:36:30:558
3.717;-0.726;-9.0543;37605;2021-05-03 15:36:30:608
3.717;-0.726;-9.0543;37654;2021-05-03 15:36:30:657
3.6955;-0.7296;-9.0764;37705;2021-05-03 15:36:30:708
3.6943;-0.7147;-9.068;37755;2021-05-03 15:36:30:758
3.7302;-0.7123;-9.065;37805;2021-05-03 15:36:30:808
3.7302;-0.7123;-9.065;37854;2021-05-03 15:36:30:857
3.7056;-0.7177;-9.0471;37905;2021-05-03 15:36:30:908
3.7062;-0.7093;-9.0968;37954;2021-05-03 15:36:30:957
3.7062;-0.7093;-9.0968;38005;2021-05-03 15:36:31:008
3.7296;-0.6829;-9.0339;38054;2021-05-03 15:36:31:057
3.7631;-0.6752;-9.0429;38105;2021-05-03 15:36:31:108
3.7445;-0.6901;-9.0627;38155;2021-05-03 15:36:31:158
3.7445;-0.6901;-9.0627;38204;2021-05-03 15:36:31:207
3.7278;-0.6578;-9.068;38255;2021-05-03 15:36:31:258
3.7673;-0.6482;-9.0345;38305;2021-05-03 15:36:31:308
3.7673;-0.6482;-9.0345;38354;2021-05-03 15:36:31:357
3.7966;-0.65;-9.0483;38405;2021-05-03 15:36:31:408
3.7697;-0.6404;-9.0477;38455;2021-05-03 15:36:31:458
3.7745;-0.6255;-9.0411;38505;2021-05-03 15:36:31:508
3.7745;-0.6255;-9.0411;38555;2021-05-03 15:36:31:558
3.8188;-0.6123;-9.0393;38604;2021-05-03 15:36:31:607
3.8176;-0.6093;-9.0196;38655;2021-05-03 15:36:31:658
3.8176;-0.6093;-9.0196;38705;2021-05-03 15:36:31:708
3.8116;-0.6069;-9.0644;38755;2021-05-03 15:36:31:758
3.8319;-0.5716;-9.0004;38804;2021-05-03 15:36:31:807
3.8828;-0.574;-9.0028;38855;2021-05-03 15:36:31:858
3.8828;-0.574;-9.0028;38905;2021-05-03 15:36:31:908
3.8762;-0.5902;-9.019;38955;2021-05-03 15:36:31:958
3.8271;-0.5309;-9.0231;39005;2021-05-03 15:36:32:008
3.8271;-0.5309;-9.0231;39055;2021-05-03 15:36:32:058
3.8678;-0.5555;-8.9902;39104;2021-05-03 15:36:32:107
3.9031;-0.5267;-9.0088;39155;2021-05-03 15:36:32:158
3.9253;-0.571;-8.9848;39205;2021-05-03 15:36:32:208
3.9253;-0.571;-8.9848;39254;2021-05-03 15:36:32:257
3.8966;-0.5405;-9.0022;39305;2021-05-03 15:36:32:308
3.8834;-0.5189;-9.0118;39355;2021-05-03 15:36:32:358
3.8834;-0.5189;-9.0118;39404;2021-05-03 15:36:32:407
3.9115;-0.5477;-8.9597;39455;2021-05-03 15:36:32:458
3.9875;-0.4998;-8.9914;39505;2021-05-03 15:36:32:508
3.8978;-0.4633;-8.9812;39555;2021-05-03 15:36:32:558
3.8978;-0.4633;-8.9812;39604;2021-05-03 15:36:32:607
3.887;-0.5333;-8.9717;39654;2021-05-03 15:36:32:657
3.9851;-0.5154;-8.9866;39705;2021-05-03 15:36:32:708
3.9851;-0.5154;-8.9866;39754;2021-05-03 15:36:32:757
3.884;-0.6075;-9.0231;39804;2021-05-03 15:36:32:807
4.0426;-0.501;-8.9609;39855;2021-05-03 15:36:32:858
3.8942;-0.5459;-8.995;39905;2021-05-03 15:36:32:908
3.8942;-0.5459;-8.995;39954;2021-05-03 15:36:32:957
3.9043;-0.5836;-9.0261;40005;2021-05-03 15:36:33:008
3.9145;-0.5501;-9.004;40055;2021-05-03 15:36:33:058
3.9145;-0.5501;-9.004;40105;2021-05-03 15:36:33:108
3.9223;-0.4693;-8.9944;40155;2021-05-03 15:36:33:158
3.8876;-0.6351;-8.9388;40204;2021-05-03 15:36:33:207
3.8876;-0.6351;-8.9388;40255;2021-05-03 15:36:33:258
3.9995;-0.6865;-8.9944;40305;2021-05-03 15:36:33:308
3.8409;-0.6829;-9.101;40354;2021-05-03 15:36:33:357
3.8373;-0.5854;-8.9202;40405;2021-05-03 15:36:33:408
3.8373;-0.5854;-8.9202;40455;2021-05-03 15:36:33:458
3.8295;-0.647;-9.0621;40505;2021-05-03 15:36:33:508
3.8158;-0.6865;-9.0196;40554;2021-05-03 15:36:33:557
3.8834;-0.7057;-8.9807;40605;2021-05-03 15:36:33:608
3.8834;-0.7057;-8.9807;40655;2021-05-03 15:36:33:658
3.6972;-0.6339;-9.0028;40705;2021-05-03 15:36:33:708
3.9067;-0.7482;-9.0854;40754;2021-05-03 15:36:33:757
3.9067;-0.7482;-9.0854;40805;2021-05-03 15:36:33:808
3.9379;-0.7308;-8.9274;40855;2021-05-03 15:36:33:858
3.7996;-0.6141;-9.0267;40904;2021-05-03 15:36:33:907
3.7996;-0.6141;-9.0267;40955;2021-05-03 15:36:33:958
3.7517;-0.6434;-9.0435;41004;2021-05-03 15:36:34:007
3.8732;-0.6422;-9.0453;41055;2021-05-03 15:36:34:058
3.8499;-0.6614;-9.016;41105;2021-05-03 15:36:34:108
3.8499;-0.6614;-9.016;41154;2021-05-03 15:36:34:157
3.9325;-0.6662;-8.9453;41205;2021-05-03 15:36:34:208
3.8301;-0.6285;-9.0094;41255;2021-05-03 15:36:34:258
3.8301;-0.6285;-9.0094;41305;2021-05-03 15:36:34:308
3.8726;-0.6434;-9.0028;41354;2021-05-03 15:36:34:357
3.945;-0.6524;-8.9393;41405;2021-05-03 15:36:34:408
3.8906;-0.5189;-8.9998;41455;2021-05-03 15:36:34:458
3.8906;-0.5189;-8.9998;41504;2021-05-03 15:36:34:507
3.8008;-0.6033;-8.8957;41555;2021-05-03 15:36:34:558
4.2443;-0.8248;-8.9639;41605;2021-05-03 15:36:34:608
4.2443;-0.8248;-8.9639;41654;2021-05-03 15:36:34:657
3.8601;-0.3238;-9.4786;41705;2021-05-03 15:36:34:708
3.614;-0.3777;-8.7071;41755;2021-05-03 15:36:34:758
4.2048;-0.7272;-8.7598;41805;2021-05-03 15:36:34:808
4.2048;-0.7272;-8.7598;41854;2021-05-03 15:36:34:857
4.2234;-0.6602;-9.0363;41905;2021-05-03 15:36:34:908
3.9163;-0.4633;-9.1333;41955;2021-05-03 15:36:34:958
3.9163;-0.4633;-9.1333;42005;2021-05-03 15:36:35:008
3.7272;-0.4974;-8.9058;42055;2021-05-03 15:36:35:058
4.0276;-0.5842;-8.8514;42104;2021-05-03 15:36:35:107
4.048;-0.5758;-9.0022;42155;2021-05-03 15:36:35:158
4.048;-0.5758;-9.0022;42205;2021-05-03 15:36:35:208
4.0079;-0.5776;-8.9878;42254;2021-05-03 15:36:35:257
3.9648;-0.6261;-8.9441;42305;2021-05-03 15:36:35:308
3.9648;-0.6261;-8.9441;42355;2021-05-03 15:36:35:358
4.0079;-0.5842;-8.9166;42405;2021-05-03 15:36:35:408
3.957;-0.5991;-8.986;42455;2021-05-03 15:36:35:458
4.115;-0.5986;-8.937;42504;2021-05-03 15:36:35:507
4.115;-0.5986;-8.937;42555;2021-05-03 15:36:35:558
3.8463;-0.516;-9.0567;42605;2021-05-03 15:36:35:608
3.9109;-0.6309;-8.9256;42655;2021-05-03 15:36:35:658
3.9109;-0.6309;-8.9256;42704;2021-05-03 15:36:35:707
3.9552;-0.6428;-8.9196;42755;2021-05-03 15:36:35:758
3.9684;-0.5926;-8.8143;42805;2021-05-03 15:36:35:808
3.8996;-0.8188;-8.8562;42855;2021-05-03 15:36:35:858
3.8996;-0.8188;-8.8562;42905;2021-05-03 15:36:35:908
4.4963;-0.5016;-9.3984;42954;2021-05-03 15:36:35:957
3.383;-0.1808;-9.2195;43005;2021-05-03 15:36:36:008
3.383;-0.1808;-9.2195;43055;2021-05-03 15:36:36:058
3.7152;-0.671;-8.4557;43105;2021-05-03 15:36:36:108
4.5149;-0.8859;-8.8382;43155;2021-05-03 15:36:36:158
4.2228;-0.6764;-9.2703;43204;2021-05-03 15:36:36:207
4.2228;-0.6764;-9.2703;43255;2021-05-03 15:36:36:258
3.6745;-0.4585;-8.9082;43305;2021-05-03 15:36:36:308
3.8607;-0.5716;-8.8669;43354;2021-05-03 15:36:36:357
3.8607;-0.5716;-8.8669;43405;2021-05-03 15:36:36:408
4.1096;-0.6321;-8.9956;43455;2021-05-03 15:36:36:458
4.0564;-0.5968;-8.9645;43505;2021-05-03 15:36:36:508
3.9995;-0.5968;-8.9435;43554;2021-05-03 15:36:36:557
3.9995;-0.5968;-8.9435;43605;2021-05-03 15:36:36:608
3.9127;-0.5908;-8.9286;43655;2021-05-03 15:36:36:658
3.9564;-0.5417;-8.9956;43704;2021-05-03 15:36:36:707
3.9564;-0.5417;-8.9956;43755;2021-05-03 15:36:36:758
4.0474;-0.5908;-8.934;43805;2021-05-03 15:36:36:808
4.0288;-0.6027;-8.9256;43855;2021-05-03 15:36:36:858
3.9516;-0.5519;-8.9765;43904;2021-05-03 15:36:36:907
3.9516;-0.5519;-8.9765;43955;2021-05-03 15:36:36:958
3.9714;-0.5357;-8.9771;44005;2021-05-03 15:36:37:008
4.0468;-0.5656;-8.9465;44054;2021-05-03 15:36:37:057
4.0468;-0.5656;-8.9465;44105;2021-05-03 15:36:37:108
4.0163;-0.571;-8.9417;44154;2021-05-03 15:36:37:157
3.9558;-0.568;-8.9741;44204;2021-05-03 15:36:37:207
3.9552;-0.5602;-8.9525;44255;2021-05-03 15:36:37:258
3.9552;-0.5602;-8.9525;44305;2021-05-03 15:36:37:308
3.9941;-0.5997;-8.9812;44354;2021-05-03 15:36:37:357
3.9618;-0.5896;-8.9501;44405;2021-05-03 15:36:37:408
3.9618;-0.5896;-8.9501;44455;2021-05-03 15:36:37:458
3.9606;-0.583;-8.9531;44505;2021-05-03 15:36:37:508
3.9409;-0.6231;-8.9807;44555;2021-05-03 15:36:37:558
3.9409;-0.6231;-8.9807;44605;2021-05-03 15:36:37:608
3.9253;-0.6243;-8.9878;44655;2021-05-03 15:36:37:658
3.9289;-0.6273;-8.9609;44704;2021-05-03 15:36:37:707
3.9403;-0.6404;-8.9753;44755;2021-05-03 15:36:37:758
3.9403;-0.6404;-8.9753;44805;2021-05-03 15:36:37:808
3.8852;-0.6548;-9.0094;44855;2021-05-03 15:36:37:858
3.887;-0.6686;-9.0064;44904;2021-05-03 15:36:37:907
3.887;-0.6686;-9.0064;44956;2021-05-03 15:36:37:959
3.89;-0.6883;-8.9705;45005;2021-05-03 15:36:38:008
3.8367;-0.738;-8.9992;45055;2021-05-03 15:36:38:058
3.8044;-0.7147;-9.0124;45104;2021-05-03 15:36:38:107
3.8044;-0.7147;-9.0124;45155;2021-05-03 15:36:38:158
3.8648;-0.6949;-8.9974;45205;2021-05-03 15:36:38:208
3.8744;-0.7069;-9.0028;45255;2021-05-03 15:36:38:258
3.8744;-0.7069;-9.0028;45305;2021-05-03 15:36:38:308
3.8409;-0.7081;-9.0172;45355;2021-05-03 15:36:38:358
3.8427;-0.6949;-9.001;45405;2021-05-03 15:36:38:408
3.878;-0.6937;-8.9992;45454;2021-05-03 15:36:38:457
3.878;-0.6937;-8.9992;45505;2021-05-03 15:36:38:508
3.8708;-0.6907;-9.004;45555;2021-05-03 15:36:38:558
3.8595;-0.6847;-8.998;45605;2021-05-03 15:36:38:608
3.8595;-0.6847;-8.998;45655;2021-05-03 15:36:38:658
3.8762;-0.6686;-8.998;45704;2021-05-03 15:36:38:707
3.8804;-0.671;-8.9902;45754;2021-05-03 15:36:38:757
3.887;-0.6722;-9.0154;45805;2021-05-03 15:36:38:808
3.887;-0.6722;-9.0154;45855;2021-05-03 15:36:38:858
3.8762;-0.6428;-8.9777;45904;2021-05-03 15:36:38:907
3.9319;-0.6243;-8.9735;45954;2021-05-03 15:36:38:957
3.9319;-0.6243;-8.9735;46004;2021-05-03 15:36:39:007
3.9073;-0.662;-8.9968;46054;2021-05-03 15:36:39:057
3.8822;-0.6357;-8.9992;46105;2021-05-03 15:36:39:108
3.9145;-0.6177;-8.9723;46155;2021-05-03 15:36:39:158
3.9145;-0.6177;-8.9723;46205;2021-05-03 15:36:39:208
3.9504;-0.6195;-8.9735;46255;2021-05-03 15:36:39:258
3.9253;-0.6165;-8.9812;46304;2021-05-03 15:36:39:307
3.9253;-0.6165;-8.9812;46355;2021-05-03 15:36:39:358
3.9355;-0.5872;-8.9765;46405;2021-05-03 15:36:39:408
3.9636;-0.5812;-8.9627;46455;2021-05-03 15:36:39:458
3.9762;-0.586;-8.9711;46504;2021-05-03 15:36:39:507
3.9762;-0.586;-8.9711;46555;2021-05-03 15:36:39:558
3.9427;-0.5758;-8.9729;46605;2021-05-03 15:36:39:608
3.9923;-0.5417;-8.9417;46655;2021-05-03 15:36:39:658
3.9923;-0.5417;-8.9417;46704;2021-05-03 15:36:39:707
3.9911;-0.5692;-8.9639;46754;2021-05-03 15:36:39:757
3.975;-0.559;-8.9717;46805;2021-05-03 15:36:39:808
3.9762;-0.5519;-8.9567;46855;2021-05-03 15:36:39:858
3.9762;-0.5519;-8.9567;46904;2021-05-03 15:36:39:907
3.9947;-0.5567;-8.9579;46955;2021-05-03 15:36:39:958
3.969;-0.5686;-8.9663;47005;2021-05-03 15:36:40:008
3.969;-0.5686;-8.9663;47055;2021-05-03 15:36:40:058
3.9606;-0.5704;-8.9681;47105;2021-05-03 15:36:40:108
3.9768;-0.5782;-8.9735;47154;2021-05-03 15:36:40:157
3.948;-0.5908;-8.9579;47205;2021-05-03 15:36:40:208
3.948;-0.5908;-8.9579;47255;2021-05-03 15:36:40:258
3.9409;-0.6087;-9.004;47305;2021-05-03 15:36:40:308
3.9259;-0.598;-8.9621;47354;2021-05-03 15:36:40:357
3.9259;-0.598;-8.9621;47405;2021-05-03 15:36:40:408
3.9552;-0.6063;-8.9597;47455;2021-05-03 15:36:40:458
3.9187;-0.6554;-8.9854;47504;2021-05-03 15:36:40:507
3.8762;-0.6452;-9.0016;47554;2021-05-03 15:36:40:557
3.8762;-0.6452;-9.0016;47604;2021-05-03 15:36:40:607
3.893;-0.6554;-8.9765;47654;2021-05-03 15:36:40:657
3.9043;-0.6794;-8.9974;47705;2021-05-03 15:36:40:708
3.9043;-0.6794;-8.9974;47755;2021-05-03 15:36:40:758
3.8517;-0.7087;-9.0058;47804;2021-05-03 15:36:40:807
3.8349;-0.7051;-9.0118;47855;2021-05-03 15:36:40:858
3.8469;-0.7266;-8.9854;47905;2021-05-03 15:36:40:908
3.8469;-0.7266;-8.9854;47954;2021-05-03 15:36:40:957
3.8361;-0.7362;-9.0399;48005;2021-05-03 15:36:41:008
3.8349;-0.7069;-8.992;48054;2021-05-03 15:36:41:057
3.8349;-0.7069;-8.992;48105;2021-05-03 15:36:41:108
3.8702;-0.7075;-8.9926;48155;2021-05-03 15:36:41:158
3.8505;-0.7242;-9.01;48204;2021-05-03 15:36:41:207
3.8343;-0.7099;-9.0154;48255;2021-05-03 15:36:41:258
3.8343;-0.7099;-9.0154;48305;2021-05-03 15:36:41:308
3.8726;-0.6829;-8.9818;48354;2021-05-03 15:36:41:357
3.8828;-0.6847;-8.998;48405;2021-05-03 15:36:41:408
3.8828;-0.6847;-8.998;48455;2021-05-03 15:36:41:458
3.8786;-0.6782;-9.004;48505;2021-05-03 15:36:41:508
3.8618;-0.6434;-9.019;48555;2021-05-03 15:36:41:558
3.8618;-0.6434;-9.019;48605;2021-05-03 15:36:41:608
3.866;-0.7045;-8.9878;48655;2021-05-03 15:36:41:658
3.9456;-0.6404;-8.9693;48704;2021-05-03 15:36:41:707
3.8942;-0.6321;-8.9956;48755;2021-05-03 15:36:41:758
3.8942;-0.6321;-8.9956;48804;2021-05-03 15:36:41:807
3.8906;-0.6686;-8.9693;48855;2021-05-03 15:36:41:858
3.9067;-0.6309;-9.0118;48905;2021-05-03 15:36:41:908
3.9067;-0.6309;-9.0118;48954;2021-05-03 15:36:41:957
3.9433;-0.5986;-8.9525;49004;2021-05-03 15:36:42:007
3.9361;-0.6279;-8.9872;49055;2021-05-03 15:36:42:058
3.9271;-0.6189;-8.9639;49105;2021-05-03 15:36:42:108
3.9271;-0.6189;-8.9639;49155;2021-05-03 15:36:42:158
3.9672;-0.5752;-9.001;49205;2021-05-03 15:36:42:208
3.966;-0.5974;-8.9376;49255;2021-05-03 15:36:42:258
3.966;-0.5974;-8.9376;49304;2021-05-03 15:36:42:307
3.9816;-0.6063;-8.9759;49354;2021-05-03 15:36:42:357
3.9636;-0.5429;-8.9537;49405;2021-05-03 15:36:42:408
4.0103;-0.5441;-8.9585;49455;2021-05-03 15:36:42:458
4.0103;-0.5441;-8.9585;49504;2021-05-03 15:36:42:507
3.9989;-0.5806;-8.9328;49555;2021-05-03 15:36:42:558
4.0019;-0.5453;-8.9753;49605;2021-05-03 15:36:42:608
4.0019;-0.5453;-8.9753;49654;2021-05-03 15:36:42:657
3.9953;-0.5321;-8.9567;49704;2021-05-03 15:36:42:707
4.0223;-0.5501;-8.9142;49755;2021-05-03 15:36:42:758
3.9911;-0.5447;-8.9932;49805;2021-05-03 15:36:42:808
3.9911;-0.5447;-8.9932;49854;2021-05-03 15:36:42:857
3.9947;-0.5459;-9.0196;49904;2021-05-03 15:36:42:907
3.969;-0.5638;-8.9615;49955;2021-05-03 15:36:42:958
3.969;-0.5638;-8.9615;50005;2021-05-03 15:36:43:008
3.9025;-0.5686;-8.9262;50054;2021-05-03 15:36:43:057
3.9558;-0.5513;-8.9627;50104;2021-05-03 15:36:43:107
4.0031;-0.6075;-9.0267;50155;2021-05-03 15:36:43:158
4.0031;-0.6075;-9.0267;50205;2021-05-03 15:36:43:208
3.9049;-0.6255;-8.937;50254;2021-05-03 15:36:43:257
3.8888;-0.6123;-8.9836;50305;2021-05-03 15:36:43:308
3.8888;-0.6123;-8.9836;50355;2021-05-03 15:36:43:358
3.9223;-0.6165;-9.01;50405;2021-05-03 15:36:43:408
3.8942;-0.6261;-8.9992;50454;2021-05-03 15:36:43:457
3.8541;-0.6674;-8.9771;50504;2021-05-03 15:36:43:507
3.8541;-0.6674;-8.9771;50555;2021-05-03 15:36:43:558
3.8894;-0.671;-9.0339;50605;2021-05-03 15:36:43:608
3.8834;-0.6578;-8.9824;50655;2021-05-03 15:36:43:658
3.8834;-0.6578;-8.9824;50705;2021-05-03 15:36:43:708
3.8648;-0.653;-8.9908;50755;2021-05-03 15:36:43:758
3.8583;-0.6812;-8.9944;50804;2021-05-03 15:36:43:807
3.887;-0.6817;-9.0142;50855;2021-05-03 15:36:43:858
3.887;-0.6817;-9.0142;50905;2021-05-03 15:36:43:908
3.8804;-0.6524;-8.983;50955;2021-05-03 15:36:43:958
3.8696;-0.641;-9.0112;51004;2021-05-03 15:36:44:007
3.8696;-0.641;-9.0112;51055;2021-05-03 15:36:44:058
3.8828;-0.671;-8.9848;51105;2021-05-03 15:36:44:108
3.9115;-0.6273;-9.016;51154;2021-05-03 15:36:44:157
3.8684;-0.6578;-8.9968;51205;2021-05-03 15:36:44:208
3.8684;-0.6578;-8.9968;51255;2021-05-03 15:36:44:258
3.9073;-0.6434;-8.9872;51305;2021-05-03 15:36:44:308
3.9289;-0.6422;-8.9681;51355;2021-05-03 15:36:44:358
3.9289;-0.6422;-8.9681;51405;2021-05-03 15:36:44:408
3.8882;-0.6416;-9.0058;51455;2021-05-03 15:36:44:458
3.9031;-0.6267;-8.9777;51505;2021-05-03 15:36:44:508
3.9157;-0.5908;-8.9968;51555;2021-05-03 15:36:44:558
3.9157;-0.5908;-8.9968;51604;2021-05-03 15:36:44:607
3.954;-0.6506;-8.9645;51655;2021-05-03 15:36:44:658
3.8798;-0.6081;-9.0303;51705;2021-05-03 15:36:44:708
3.8798;-0.6081;-9.0303;51755;2021-05-03 15:36:44:758
3.9229;-0.6399;-8.9501;51804;2021-05-03 15:36:44:807
3.9881;-0.5968;-8.9645;51855;2021-05-03 15:36:44:858
3.9403;-0.6027;-8.9609;51905;2021-05-03 15:36:44:908
3.9403;-0.6027;-8.9609;51954;2021-05-03 15:36:44:957
3.8714;-0.571;-9.0016;52005;2021-05-03 15:36:45:008
3.9828;-0.6285;-8.9723;52055;2021-05-03 15:36:45:058
3.9828;-0.6285;-8.9723;52105;2021-05-03 15:36:45:108
4.0247;-0.5836;-8.9609;52155;2021-05-03 15:36:45:158
3.9061;-0.5668;-8.995;52204;2021-05-03 15:36:45:207
3.9379;-0.6213;-8.9423;52255;2021-05-03 15:36:45:258
3.9379;-0.6213;-8.9423;52305;2021-05-03 15:36:45:308
3.981;-0.565;-8.9836;52355;2021-05-03 15:36:45:358
3.9462;-0.5662;-8.9567;52405;2021-05-03 15:36:45:408
3.9462;-0.5662;-8.9567;52455;2021-05-03 15:36:45:458
3.9786;-0.6207;-8.9824;52505;2021-05-03 15:36:45:508
3.9409;-0.5872;-8.9669;52554;2021-05-03 15:36:45:557
3.9409;-0.5872;-8.9669;52604;2021-05-03 15:36:45:607
3.9798;-0.5106;-8.9531;52655;2021-05-03 15:36:45:658
3.9905;-0.583;-8.9705;52705;2021-05-03 15:36:45:708
3.975;-0.595;-8.9723;52755;2021-05-03 15:36:45:758
3.975;-0.595;-8.9723;52805;2021-05-03 15:36:45:808
3.9403;-0.5549;-8.9549;52854;2021-05-03 15:36:45:857
3.969;-0.5698;-8.9777;52904;2021-05-03 15:36:45:907
3.969;-0.5698;-8.9777;52955;2021-05-03 15:36:45:958
3.9684;-0.6045;-8.9789;53005;2021-05-03 15:36:46:008
3.9139;-0.5944;-8.9573;53055;2021-05-03 15:36:46:058
3.9516;-0.6123;-9.001;53104;2021-05-03 15:36:46:107
3.9516;-0.6123;-9.001;53155;2021-05-03 15:36:46:158
3.9014;-0.6141;-8.9824;53205;2021-05-03 15:36:46:208
3.9259;-0.6045;-8.9759;53255;2021-05-03 15:36:46:258
3.9259;-0.6045;-8.9759;53305;2021-05-03 15:36:46:308
3.9163;-0.6626;-8.9818;53354;2021-05-03 15:36:46:357
3.866;-0.6734;-9.01;53405;2021-05-03 15:36:46:408
3.8612;-0.6578;-8.9908;53454;2021-05-03 15:36:46:457
3.8612;-0.6578;-8.9908;53505;2021-05-03 15:36:46:508
3.8798;-0.6722;-9.0148;53555;2021-05-03 15:36:46:558
3.8505;-0.7201;-9.0022;53605;2021-05-03 15:36:46:608
3.8505;-0.7201;-9.0022;53654;2021-05-03 15:36:46:657
3.8445;-0.7039;-9.0046;53705;2021-05-03 15:36:46:708
3.784;-0.7332;-9.0525;53755;2021-05-03 15:36:46:758
3.8319;-0.7189;-8.9759;53805;2021-05-03 15:36:46:808
3.8319;-0.7189;-8.9759;53855;2021-05-03 15:36:46:858
3.8391;-0.7452;-9.0154;53904;2021-05-03 15:36:46:907
3.8152;-0.7189;-9.0267;53955;2021-05-03 15:36:46:958
3.8152;-0.7189;-9.0267;54005;2021-05-03 15:36:47:008
3.808;-0.7135;-9.0231;54054;2021-05-03 15:36:47:057
3.8457;-0.723;-8.9878;54105;2021-05-03 15:36:47:108
3.8457;-0.7195;-9.0231;54155;2021-05-03 15:36:47:158
3.8457;-0.7195;-9.0231;54205;2021-05-03 15:36:47:208
3.811;-0.6991;-9.0112;54255;2021-05-03 15:36:47:258
3.8595;-0.7021;-9.0196;54305;2021-05-03 15:36:47:308
3.8595;-0.7021;-9.0196;54355;2021-05-03 15:36:47:358
3.8349;-0.7027;-9.0022;54405;2021-05-03 15:36:47:408
3.8726;-0.6668;-8.9998;54454;2021-05-03 15:36:47:457
3.8654;-0.7027;-8.998;54505;2021-05-03 15:36:47:508
3.8654;-0.7027;-8.998;54555;2021-05-03 15:36:47:558
3.8469;-0.6752;-9.0052;54605;2021-05-03 15:36:47:608
3.8756;-0.659;-9.0016;54654;2021-05-03 15:36:47:657
3.8756;-0.659;-9.0016;54705;2021-05-03 15:36:47:708
3.9037;-0.6602;-8.9884;54755;2021-05-03 15:36:47:758
3.8804;-0.6542;-8.9992;54805;2021-05-03 15:36:47:808
3.8888;-0.6309;-8.9974;54854;2021-05-03 15:36:47:857
3.8888;-0.6309;-8.9974;54905;2021-05-03 15:36:47:908
3.9355;-0.6321;-8.9866;54955;2021-05-03 15:36:47:958
3.9145;-0.6159;-8.9681;55005;2021-05-03 15:36:48:008
3.9145;-0.6159;-8.9681;55054;2021-05-03 15:36:48:057
3.9169;-0.6099;-9.0231;55105;2021-05-03 15:36:48:108
3.9301;-0.6015;-8.9489;55155;2021-05-03 15:36:48:158
3.9732;-0.5878;-8.9615;55205;2021-05-03 15:36:48:208
3.9732;-0.5878;-8.9615;55254;2021-05-03 15:36:48:257
3.9421;-0.592;-8.9836;55305;2021-05-03 15:36:48:308
3.9409;-0.5812;-8.9789;55355;2021-05-03 15:36:48:358
3.9409;-0.5812;-8.9789;55405;2021-05-03 15:36:48:408
3.9738;-0.58;-8.9525;55455;2021-05-03 15:36:48:458
3.981;-0.5752;-8.9717;55504;2021-05-03 15:36:48:507
3.9606;-0.5632;-8.9669;55555;2021-05-03 15:36:48:558
3.9606;-0.5632;-8.9669;55605;2021-05-03 15:36:48:608
3.9762;-0.565;-8.9687;55654;2021-05-03 15:36:48:657
3.9828;-0.5668;-8.9639;55704;2021-05-03 15:36:48:707
3.9828;-0.5668;-8.9639;55755;2021-05-03 15:36:48:758
3.975;-0.5662;-8.9687;55805;2021-05-03 15:36:48:808
3.9576;-0.5716;-8.9681;55855;2021-05-03 15:36:48:858
3.9576;-0.5812;-8.9711;55904;2021-05-03 15:36:48:907
3.9558;-0.5812;-8.9711;55954;2021-05-03 15:36:48:957
3.9594;-0.5884;-8.9723;56005;2021-05-03 15:36:49:008
3.9427;-0.5944;-8.9729;56055;2021-05-03 15:36:49:058
3.9427;-0.5944;-8.9729;56104;2021-05-03 15:36:49:107
3.9498;-0.5986;-8.9657;56155;2021-05-03 15:36:49:158
3.8894;-0.6363;-9.0142;56205;2021-05-03 15:36:49:208
3.8894;-0.6363;-9.0142;56254;2021-05-03 15:36:49:257
3.9373;-0.6075;-8.9585;56305;2021-05-03 15:36:49:308
3.9205;-0.6578;-8.9854;56354;2021-05-03 15:36:49:357
3.8684;-0.6722;-9.0076;56404;2021-05-03 15:36:49:407
3.8684;-0.6722;-9.0076;56455;2021-05-03 15:36:49:458
3.8439;-0.6746;-9.0112;56505;2021-05-03 15:36:49:508
3.8918;-0.6865;-8.9801;56554;2021-05-03 15:36:49:557
3.8918;-0.6865;-8.9801;56605;2021-05-03 15:36:49:608
3.8559;-0.7081;-9.0094;56655;2021-05-03 15:36:49:658
3.817;-0.7147;-9.0148;56704;2021-05-03 15:36:49:707
3.8427;-0.7171;-9.0076;56755;2021-05-03 15:36:49:758
3.8427;-0.7171;-9.0076;56805;2021-05-03 15:36:49:808
3.8439;-0.7123;-9.007;56855;2021-05-03 15:36:49:858
3.8607;-0.7081;-9.0004;56904;2021-05-03 15:36:49:907
3.8607;-0.7081;-9.0004;56955;2021-05-03 15:36:49:958
3.8122;-0.7272;-9.0315;57005;2021-05-03 15:36:50:008
3.8607;-0.6841;-8.9812;57055;2021-05-03 15:36:50:058
3.875;-0.7045;-8.9962;57105;2021-05-03 15:36:50:108
3.875;-0.7045;-8.9962;57155;2021-05-03 15:36:50:158
3.8421;-0.7021;-9.0172;57205;2021-05-03 15:36:50:208
3.8517;-0.6841;-9.0106;57255;2021-05-03 15:36:50:258
3.8517;-0.6841;-9.0106;57305;2021-05-03 15:36:50:308
3.8918;-0.68;-8.9771;57355;2021-05-03 15:36:50:358
3.881;-0.6722;-9.0118;57405;2021-05-03 15:36:50:408
3.8666;-0.6734;-8.9998;57454;2021-05-03 15:36:50:457
3.8666;-0.6734;-8.9998;57505;2021-05-03 15:36:50:508
3.8996;-0.6596;-8.9956;57555;2021-05-03 15:36:50:558
3.9127;-0.6381;-8.9836;57605;2021-05-03 15:36:50:608
3.9127;-0.6381;-8.9836;57654;2021-05-03 15:36:50:657
3.8774;-0.6626;-9.0214;57705;2021-05-03 15:36:50:708
3.9169;-0.6267;-8.9531;57755;2021-05-03 15:36:50:758
3.9409;-0.6279;-8.9681;57804;2021-05-03 15:36:50:807
3.9409;-0.6279;-8.9681;57855;2021-05-03 15:36:50:858
3.9223;-0.6237;-8.9998;57905;2021-05-03 15:36:50:908
3.9109;-0.6129;-8.9854;57954;2021-05-03 15:36:50:957
3.9109;-0.6129;-8.9854;58004;2021-05-03 15:36:51:007
3.9588;-0.6195;-8.9543;58055;2021-05-03 15:36:51:058
3.9708;-0.58;-8.9759;58105;2021-05-03 15:36:51:108
3.9397;-0.5824;-8.9866;58154;2021-05-03 15:36:51:157
3.9397;-0.5824;-8.9866;58205;2021-05-03 15:36:51:208
3.9612;-0.6027;-8.9573;58255;2021-05-03 15:36:51:258
3.978;-0.5878;-8.9621;58305;2021-05-03 15:36:51:308
3.978;-0.5878;-8.9621;58354;2021-05-03 15:36:51:357
3.969;-0.5698;-8.986;58405;2021-05-03 15:36:51:408
3.9546;-0.5812;-8.9627;58455;2021-05-03 15:36:51:458
3.9558;-0.5908;-8.9705;58505;2021-05-03 15:36:51:508
3.9558;-0.5908;-8.9705;58555;2021-05-03 15:36:51:558
3.9642;-0.592;-8.9765;58605;2021-05-03 15:36:51:608
3.9271;-0.5974;-8.9573;58655;2021-05-03 15:36:51:658
3.9271;-0.5974;-8.9573;58705;2021-05-03 15:36:51:708
3.9367;-0.6189;-9.0058;58755;2021-05-03 15:36:51:758
3.9175;-0.5997;-8.9735;58804;2021-05-03 15:36:51:807
3.9385;-0.6285;-8.9639;58855;2021-05-03 15:36:51:858
3.9385;-0.6285;-8.9639;58904;2021-05-03 15:36:51:907
3.8984;-0.6662;-9.001;58955;2021-05-03 15:36:51:958
3.8792;-0.6458;-8.9968;59005;2021-05-03 15:36:52:008
3.8792;-0.6458;-8.9968;59055;2021-05-03 15:36:52:058
3.884;-0.6692;-8.9872;59105;2021-05-03 15:36:52:108
3.8846;-0.6883;-8.9992;59155;2021-05-03 15:36:52:158
3.8487;-0.6895;-9.0142;59204;2021-05-03 15:36:52:207
3.8487;-0.6895;-9.0142;59254;2021-05-03 15:36:52:257
3.8361;-0.7069;-9.0106;59305;2021-05-03 15:36:52:308
3.8463;-0.7356;-9.0046;59355;2021-05-03 15:36:52:358
3.8463;-0.7356;-9.0046;59404;2021-05-03 15:36:52:407
3.8319;-0.7272;-9.0214;59455;2021-05-03 15:36:52:458
3.8068;-0.732;-9.0064;59504;2021-05-03 15:36:52:507
3.8158;-0.7356;-9.0399;59555;2021-05-03 15:36:52:558
3.8158;-0.7356;-9.0399;59605;2021-05-03 15:36:52:608
3.8439;-0.7236;-8.9974;59654;2021-05-03 15:36:52:657
3.8553;-0.7123;-9.0058;59705;2021-05-03 15:36:52:708
3.8553;-0.7123;-9.0058;59755;2021-05-03 15:36:52:758
3.8343;-0.7332;-9.0106;59804;2021-05-03 15:36:52:807
3.8253;-0.7087;-9.0202;59854;2021-05-03 15:36:52:857
3.8391;-0.7039;-9.0094;59905;2021-05-03 15:36:52:908
3.8391;-0.7039;-9.0094;59955;2021-05-03 15:36:52:958
3.8744;-0.7057;-9.001;60005;2021-05-03 15:36:53:008
3.8648;-0.7021;-9.0094;60055;2021-05-03 15:36:53:058
3.8648;-0.7021;-9.0094;60104;2021-05-03 15:36:53:107
3.8367;-0.6764;-9.0148;60155;2021-05-03 15:36:53:158
3.875;-0.6806;-9.007;60204;2021-05-03 15:36:53:207
3.875;-0.6806;-9.007;60255;2021-05-03 15:36:53:258
3.9211;-0.6997;-8.9711;60305;2021-05-03 15:36:53:308
3.8349;-0.6626;-9.0429;60355;2021-05-03 15:36:53:358
3.8834;-0.6285;-8.9818;60404;2021-05-03 15:36:53:407
3.8834;-0.6285;-8.9818;60455;2021-05-03 15:36:53:458
3.9331;-0.6817;-8.9645;60505;2021-05-03 15:36:53:508
3.8924;-0.659;-9.0172;60554;2021-05-03 15:36:53:557
3.8924;-0.659;-9.0172;60605;2021-05-03 15:36:53:608
3.8822;-0.6219;-8.9932;60655;2021-05-03 15:36:53:658
3.9361;-0.6333;-8.9633;60704;2021-05-03 15:36:53:707
3.9319;-0.6327;-8.9908;60755;2021-05-03 15:36:53:758
3.9319;-0.6327;-8.9908;60805;2021-05-03 15:36:53:808
3.9223;-0.6159;-8.9908;60855;2021-05-03 15:36:53:858
3.9307;-0.5997;-8.9525;60904;2021-05-03 15:36:53:907
3.9307;-0.5997;-8.9525;60955;2021-05-03 15:36:53:958
3.9893;-0.6093;-8.9489;61005;2021-05-03 15:36:54:008
3.9433;-0.6081;-8.9627;61054;2021-05-03 15:36:54:057
4.0133;-0.5986;-8.9962;61104;2021-05-03 15:36:54:107
4.0133;-0.5986;-8.9962;61155;2021-05-03 15:36:54:158
4.112;-0.5525;-8.8998;61205;2021-05-03 15:36:54:208
4.1282;-0.589;-8.8675;61254;2021-05-03 15:36:54:257
4.1282;-0.589;-8.8675;61305;2021-05-03 15:36:54:308
4.1474;-0.65;-8.9705;61355;2021-05-03 15:36:54:358
4.1761;-0.5219;-8.8879;61405;2021-05-03 15:36:54:408
4.1911;-0.5034;-8.8029;61454;2021-05-03 15:36:54:457
4.1911;-0.5034;-8.8029;61505;2021-05-03 15:36:54:508
4.2204;-0.5824;-8.8424;61554;2021-05-03 15:36:54:557
4.2527;-0.5507;-8.7951;61604;2021-05-03 15:36:54:607
4.2527;-0.5507;-8.7951;61655;2021-05-03 15:36:54:658
4.1456;-0.6141;-8.8867;61704;2021-05-03 15:36:54:707
4.0115;-0.6674;-8.9974;61755;2021-05-03 15:36:54:758
4.0474;-0.592;-8.9818;61805;2021-05-03 15:36:54:808
4.0474;-0.592;-8.9818;61854;2021-05-03 15:36:54:857
3.9283;-0.6602;-8.9609;61905;2021-05-03 15:36:54:908
4.0336;-0.6794;-8.9579;61955;2021-05-03 15:36:54:958
4.0336;-0.6794;-8.9579;62005;2021-05-03 15:36:55:008
3.8391;-0.5471;-8.9519;62055;2021-05-03 15:36:55:058
4.0917;-0.6812;-8.9136;62104;2021-05-03 15:36:55:107
4.0845;-0.5896;-8.9537;62155;2021-05-03 15:36:55:158
4.0845;-0.5896;-8.9537;62205;2021-05-03 15:36:55:208
3.9959;-0.5997;-8.9226;62254;2021-05-03 15:36:55:257
4.0516;-0.5369;-8.8418;62305;2021-05-03 15:36:55:308
4.0516;-0.5369;-8.8418;62355;2021-05-03 15:36:55:358
4.1156;-0.6428;-9.0076;62405;2021-05-03 15:36:55:408
4.2617;-0.6081;-8.7634;62455;2021-05-03 15:36:55:458
4.5256;-0.3154;-8.7873;62505;2021-05-03 15:36:55:508
4.5256;-0.3154;-8.7873;62555;2021-05-03 15:36:55:558
4.5005;-0.5207;-8.7472;62606;2021-05-03 15:36:55:609
4.5921;-0.492;-8.7227;62654;2021-05-03 15:36:55:657
4.5921;-0.492;-8.7227;62705;2021-05-03 15:36:55:708
4.5532;-0.7703;-8.752;62755;2021-05-03 15:36:55:758
4.1312;-0.7272;-8.7173;62805;2021-05-03 15:36:55:808
4.3838;-0.7763;-8.7718;62854;2021-05-03 15:36:55:857
4.3838;-0.7763;-8.7718;62905;2021-05-03 15:36:55:908
4.2126;-1.0636;-8.816;62955;2021-05-03 15:36:55:958
4.1857;-0.8847;-8.8466;63005;2021-05-03 15:36:56:008
4.1857;-0.8847;-8.8466;63055;2021-05-03 15:36:56:058
4.1342;-0.9822;-8.8556;63105;2021-05-03 15:36:56:108
4.0456;-0.972;-8.9136;63155;2021-05-03 15:36:56:158
3.5979;-0.972;-8.9693;63204;2021-05-03 15:36:56:207
3.5979;-0.972;-8.9693;63255;2021-05-03 15:36:56:258
3.7152;-1.0265;-9.0621;63305;2021-05-03 15:36:56:308
3.38;-1.1366;-9.0974;63354;2021-05-03 15:36:56:357
3.38;-1.1366;-9.0974;63405;2021-05-03 15:36:56:408
3.5267;-1.0708;-9.0531;63455;2021-05-03 15:36:56:458
3.8373;-0.8733;-9.0728;63505;2021-05-03 15:36:56:508
3.8373;-0.8733;-9.0728;63554;2021-05-03 15:36:56:557
3.6589;-1.0104;-8.998;63604;2021-05-03 15:36:56:607
4.1096;-1.1684;-8.9136;63655;2021-05-03 15:36:56:658
4.5382;-0.981;-8.8107;63704;2021-05-03 15:36:56:707
4.5382;-0.981;-8.8107;63755;2021-05-03 15:36:56:758
4.1946;-0.9044;-8.7664;63805;2021-05-03 15:36:56:808
4.8165;-1.0864;-8.6718;63855;2021-05-03 15:36:56:858
4.8165;-1.0864;-8.6718;63904;2021-05-03 15:36:56:907
4.695;-0.9774;-8.603;63955;2021-05-03 15:36:56:958
4.5675;-0.9206;-8.5024;64005;2021-05-03 15:36:57:008
5.1918;-1.0325;-8.433;64055;2021-05-03 15:36:57:058
5.1918;-1.0325;-8.433;64104;2021-05-03 15:36:57:107
5.3762;-1.0199;-8.3324;64154;2021-05-03 15:36:57:157
5.7814;-0.9571;-8.1768;64205;2021-05-03 15:36:57:208
5.7814;-0.9571;-8.1768;64255;2021-05-03 15:36:57:258
5.1332;-0.835;-7.9051;64304;2021-05-03 15:36:57:307
5.8281;-0.9056;-8.0762;64355;2021-05-03 15:36:57:358
6.5116;-0.9212;-7.6842;64405;2021-05-03 15:36:57:408
6.5116;-0.9212;-7.6842;64454;2021-05-03 15:36:57:457
5.6856;-0.762;-7.759;64505;2021-05-03 15:36:57:508
6.5326;-0.5279;-7.4909;64555;2021-05-03 15:36:57:558
6.5326;-0.5279;-7.4909;64605;2021-05-03 15:36:57:608
5.5551;-0.2903;-7.3879;64655;2021-05-03 15:36:57:658
7.3646;-0.8487;-6.9468;64705;2021-05-03 15:36:57:708
4.4939;-0.1095;-7.9362;64755;2021-05-03 15:36:57:758
4.4939;-0.1095;-7.9362;64804;2021-05-03 15:36:57:807
5.223;-0.3035;-7.6411;64855;2021-05-03 15:36:57:858
4.3293;0.6841;-8.761;64905;2021-05-03 15:36:57:908
4.3293;0.6841;-8.761;64954;2021-05-03 15:36:57:957
3.1262;-1.2462;-10.3944;65004;2021-05-03 15:36:58:007
1.9411;-1.309;-9.6438;65055;2021-05-03 15:36:58:058
1.4461;-0.5225;-9.6636;65105;2021-05-03 15:36:58:108
1.4461;-0.5225;-9.6636;65155;2021-05-03 15:36:58:158
1.221;-0.9661;-9.5229;65204;2021-05-03 15:36:58:207
1.3563;-0.841;-9.5427;65255;2021-05-03 15:36:58:258
1.3563;-0.841;-9.5427;65305;2021-05-03 15:36:58:308
1.8166;-0.9828;-9.5325;65355;2021-05-03 15:36:58:358
1.4766;-0.814;-9.4912;65404;2021-05-03 15:36:58:407
1.8166;-1.3012;-9.569;65455;2021-05-03 15:36:58:458
1.8166;-1.3012;-9.569;65505;2021-05-03 15:36:58:508
2.2368;-1.7352;-9.3559;65555;2021-05-03 15:36:58:558
2.3954;-1.4653;-9.4326;65604;2021-05-03 15:36:58:607
2.3954;-1.4653;-9.4326;65655;2021-05-03 15:36:58:658
1.7136;-1.7831;-9.232;65705;2021-05-03 15:36:58:708
3.1328;-2.5385;-8.8579;65755;2021-05-03 15:36:58:758
3.7595;-2.6989;-9.3811;65804;2021-05-03 15:36:58:807
3.7595;-2.6989;-9.3811;65855;2021-05-03 15:36:58:858
3.5907;-2.2122;-8.6072;65905;2021-05-03 15:36:58:908
3.9648;-2.6653;-8.2211;65954;2021-05-03 15:36:58:957
3.9648;-2.6653;-8.2211;66004;2021-05-03 15:36:59:007
4.8147;-3.7912;-7.7381;66055;2021-05-03 15:36:59:058
4.6388;-4.3197;-7.2036;66105;2021-05-03 15:36:59:108
5.3445;-4.947;-6.0077;66155;2021-05-03 15:36:59:158
5.3445;-4.947;-6.0077;66205;2021-05-03 15:36:59:208
6.1938;-6.022;-4.8501;66255;2021-05-03 15:36:59:258
6.5745;-7.2071;-3.5913;66305;2021-05-03 15:36:59:308
6.5745;-7.2071;-3.5913;66354;2021-05-03 15:36:59:357
6.5589;-7.613;-2.7623;66405;2021-05-03 15:36:59:408
6.1118;-7.5944;-1.889;66455;2021-05-03 15:36:59:458
6.2752;-8.6389;-0.8595;66504;2021-05-03 15:36:59:507
6.2752;-8.6389;-0.8595;66554;2021-05-03 15:36:59:557
5.3115;-8.4964;0.1365;66605;2021-05-03 15:36:59:608
3.8505;-8.5102;1.1283;66654;2021-05-03 15:36:59:657
3.8505;-8.5102;1.1283;66705;2021-05-03 15:36:59:708
4.2928;-8.2678;1.9561;66755;2021-05-03 15:36:59:758
4.3006;-7.7267;2.8012;66804;2021-05-03 15:36:59:807
4.8357;-8.3498;2.1979;66855;2021-05-03 15:36:59:858
4.8357;-8.3498;2.1979;66905;2021-05-03 15:36:59:908
6.2201;-7.7536;1.1648;66954;2021-05-03 15:36:59:957
6.3805;-6.429;0.3998;67005;2021-05-03 15:37:00:008
6.3805;-6.429;0.3998;67055;2021-05-03 15:37:00:058
6.6673;-8.0194;-0.1383;67105;2021-05-03 15:37:00:108
6.7481;-7.7656;-0.146;67155;2021-05-03 15:37:00:158
6.2716;-7.4933;-0.407;67205;2021-05-03 15:37:00:208
6.2716;-7.4933;-0.407;67255;2021-05-03 15:37:00:258
5.9807;-7.258;0.0485;67304;2021-05-03 15:37:00:307
5.9735;-7.1144;1.2402;67355;2021-05-03 15:37:00:358
5.9735;-7.1144;1.2402;67405;2021-05-03 15:37:00:408
5.7898;-7.1766;3.8068;67455;2021-05-03 15:37:00:458
4.9021;-7.2305;5.4869;67505;2021-05-03 15:37:00:508
4.9021;-7.2305;5.4869;67554;2021-05-03 15:37:00:557
4.616;-7.0868;5.0751;67605;2021-05-03 15:37:00:608
4.701;-7.0761;5.0278;67655;2021-05-03 15:37:00:658
4.6166;-7.0886;4.8752;67705;2021-05-03 15:37:00:708
4.6166;-7.0886;4.8752;67754;2021-05-03 15:37:00:757
4.4377;-7.0683;5.1757;67805;2021-05-03 15:37:00:808
4.6615;-7.0282;5.2583;67855;2021-05-03 15:37:00:858
4.6615;-7.0282;5.2583;67905;2021-05-03 15:37:00:908
4.7956;-7.2006;5.2343;67954;2021-05-03 15:37:00:957
4.7405;-7.182;5.0655;68005;2021-05-03 15:37:01:008
4.5131;-6.9067;4.9913;68055;2021-05-03 15:37:01:058
4.5131;-6.9067;4.9913;68104;2021-05-03 15:37:01:107
4.5508;-7.1281;4.9859;68155;2021-05-03 15:37:01:158
4.5699;-7.0814;4.777;68205;2021-05-03 15:37:01:208
4.5699;-7.0814;4.777;68255;2021-05-03 15:37:01:258
4.7938;-7.1916;4.6669;68304;2021-05-03 15:37:01:307
4.9267;-7.1539;4.534;68355;2021-05-03 15:37:01:358
5.1206;-7.176;4.3856;68405;2021-05-03 15:37:01:408
5.1206;-7.176;4.3856;68455;2021-05-03 15:37:01:458
5.1038;-7.3185;4.0031;68504;2021-05-03 15:37:01:507
5.2672;-7.4071;3.9175;68555;2021-05-03 15:37:01:558
5.2672;-7.4071;3.9175;68605;2021-05-03 15:37:01:608
5.3008;-7.3149;3.4429;68655;2021-05-03 15:37:01:658
5.5988;-7.2826;3.2938;68705;2021-05-03 15:37:01:708
5.8849;-7.1401;2.8796;68754;2021-05-03 15:37:01:757
5.8849;-7.1401;2.8796;68805;2021-05-03 15:37:01:808
6.0352;-7.1024;2.8138;68855;2021-05-03 15:37:01:858
6.01;-7.1497;2.9957;68905;2021-05-03 15:37:01:908
6.01;-7.1497;2.9957;68955;2021-05-03 15:37:01:958
6.0148;-7.1545;3.0502;69004;2021-05-03 15:37:02:007
5.9239;-7.0264;2.8323;69055;2021-05-03 15:37:02:058
6.0023;-7.0671;2.6875;69105;2021-05-03 15:37:02:108
6.0023;-7.0671;2.6875;69154;2021-05-03 15:37:02:157
6.2082;-7.0689;3.3423;69205;2021-05-03 15:37:02:208
5.9382;-7.0719;3.6296;69255;2021-05-03 15:37:02:258
5.9382;-7.0719;3.6296;69305;2021-05-03 15:37:02:308
5.8754;-6.9605;3.6266;69355;2021-05-03 15:37:02:358
5.7754;-7.0401;3.4997;69404;2021-05-03 15:37:02:407
5.7814;-7.1293;3.3788;69455;2021-05-03 15:37:02:458
5.7814;-7.1293;3.3788;69505;2021-05-03 15:37:02:508
5.8814;-7.0976;3.3956;69555;2021-05-03 15:37:02:558
5.8903;-7.0138;3.4357;69605;2021-05-03 15:37:02:608
5.8903;-7.0138;3.4357;69654;2021-05-03 15:37:02:657
5.8718;-7.0252;3.4818;69705;2021-05-03 15:37:02:708
5.779;-7.0689;3.4566;69755;2021-05-03 15:37:02:758
5.855;-7.0856;3.4423;69804;2021-05-03 15:37:02:807
5.855;-7.0856;3.4423;69855;2021-05-03 15:37:02:858
5.8838;-7.0491;3.4536;69905;2021-05-03 15:37:02:908
5.8442;-7.0485;3.4447;69955;2021-05-03 15:37:02:958
5.8442;-7.0485;3.4447;70005;2021-05-03 15:37:03:008
5.8359;-7.0599;3.4602;70055;2021-05-03 15:37:03:058
5.8532;-7.0659;3.4524;70105;2021-05-03 15:37:03:108
5.858;-7.0581;3.453;70154;2021-05-03 15:37:03:157
5.858;-7.0581;3.453;70204;2021-05-03 15:37:03:207
5.8484;-7.0491;3.4459;70255;2021-05-03 15:37:03:258
5.8574;-7.0563;3.4524;70305;2021-05-03 15:37:03:308
5.8574;-7.0563;3.4524;70354;2021-05-03 15:37:03:357
5.849;-7.0545;3.4542;70405;2021-05-03 15:37:03:408
5.8604;-7.0665;3.4441;70454;2021-05-03 15:37:03:457
5.8604;-7.0665;3.4441;70505;2021-05-03 15:37:03:508
5.8323;-7.0563;3.4572;70555;2021-05-03 15:37:03:558
5.8772;-7.0407;3.483;70605;2021-05-03 15:37:03:608
5.8628;-7.0372;3.4572;70655;2021-05-03 15:37:03:658
5.8628;-7.0372;3.4572;70705;2021-05-03 15:37:03:708
5.8843;-7.0431;3.4399;70755;2021-05-03 15:37:03:758
5.8838;-7.0306;3.4357;70805;2021-05-03 15:37:03:808
5.8838;-7.0306;3.4357;70854;2021-05-03 15:37:03:857
5.8586;-7.0378;3.4411;70905;2021-05-03 15:37:03:908
5.8706;-7.012;3.4812;70955;2021-05-03 15:37:03:958
5.9089;-7.0449;3.4638;71005;2021-05-03 15:37:04:008
5.9089;-7.0449;3.4638;71054;2021-05-03 15:37:04:057
5.8891;-7.0425;3.4165;71105;2021-05-03 15:37:04:108
5.8778;-7.0144;3.4285;71155;2021-05-03 15:37:04:158
5.8778;-7.0144;3.4285;71205;2021-05-03 15:37:04:208
5.9047;-7.03;3.4614;71255;2021-05-03 15:37:04:258
5.8933;-7.021;3.4494;71304;2021-05-03 15:37:04:307
5.8915;-7.0282;3.4255;71355;2021-05-03 15:37:04:358
5.8915;-7.0282;3.4255;71405;2021-05-03 15:37:04:408
5.8873;-7.0228;3.4279;71454;2021-05-03 15:37:04:457
5.9065;-7.036;3.4494;71505;2021-05-03 15:37:04:508
5.9065;-7.036;3.4494;71555;2021-05-03 15:37:04:558
5.8963;-7.0312;3.4375;71605;2021-05-03 15:37:04:608
5.8742;-7.0144;3.4423;71654;2021-05-03 15:37:04:657
5.9304;-7.0485;3.4147;71705;2021-05-03 15:37:04:708
5.9304;-7.0485;3.4147;71755;2021-05-03 15:37:04:758
5.8933;-6.9875;3.4357;71804;2021-05-03 15:37:04:807
5.9083;-7.0449;3.468;71855;2021-05-03 15:37:04:858
5.9083;-7.0449;3.468;71905;2021-05-03 15:37:04:908
5.8646;-7.0048;3.4488;71954;2021-05-03 15:37:04:957
5.9017;-7.0497;3.4291;72005;2021-05-03 15:37:05:008
5.8808;-7.03;3.474;72055;2021-05-03 15:37:05:058
5.8808;-7.03;3.474;72104;2021-05-03 15:37:05:107
5.8861;-7.009;3.4339;72155;2021-05-03 15:37:05:158
5.8951;-7.039;3.468;72205;2021-05-03 15:37:05:208
5.8951;-7.039;3.468;72255;2021-05-03 15:37:05:258
5.8658;-7.0545;3.4237;72304;2021-05-03 15:37:05:307
5.8706;-7.0258;3.4644;72355;2021-05-03 15:37:05:358
5.8676;-7.0719;3.4111;72405;2021-05-03 15:37:05:408
5.8676;-7.0719;3.4111;72455;2021-05-03 15:37:05:458
5.8472;-7.0467;3.4764;72505;2021-05-03 15:37:05:508
5.843;-7.0545;3.4686;72555;2021-05-03 15:37:05:558
5.843;-7.0545;3.4686;72605;2021-05-03 15:37:05:608
5.8341;-7.0761;3.4554;72654;2021-05-03 15:37:05:657
5.8347;-7.0719;3.4429;72705;2021-05-03 15:37:05:708
5.846;-7.0485;3.45;72755;2021-05-03 15:37:05:758
5.846;-7.0485;3.45;72805;2021-05-03 15:37:05:808
5.8556;-7.0521;3.4698;72854;2021-05-03 15:37:05:857
5.8454;-7.0641;3.45;72904;2021-05-03 15:37:05:907
5.8454;-7.0641;3.45;72955;2021-05-03 15:37:05:958
5.8598;-7.0539;3.4548;73005;2021-05-03 15:37:06:008
5.843;-7.0521;3.4255;73055;2021-05-03 15:37:06:058
5.8724;-7.0491;3.4758;73104;2021-05-03 15:37:06:107
5.8724;-7.0491;3.4758;73155;2021-05-03 15:37:06:158
5.8574;-7.0443;3.4686;73205;2021-05-03 15:37:06:208
5.8562;-7.0623;3.4447;73254;2021-05-03 15:37:06:257
5.8562;-7.0623;3.4447;73304;2021-05-03 15:37:06:307
5.8598;-7.0443;3.4255;73355;2021-05-03 15:37:06:358
5.8724;-7.0384;3.4548;73405;2021-05-03 15:37:06:408
5.8724;-7.0384;3.4548;73455;2021-05-03 15:37:06:458
5.8778;-7.0419;3.4668;73504;2021-05-03 15:37:06:507
5.87;-7.0485;3.4429;73555;2021-05-03 15:37:06:558
5.8676;-7.0276;3.4471;73605;2021-05-03 15:37:06:608
5.8676;-7.0276;3.4471;73654;2021-05-03 15:37:06:657
5.8706;-7.0569;3.4315;73705;2021-05-03 15:37:06:708
5.8814;-7.0228;3.4584;73755;2021-05-03 15:37:06:758
5.8814;-7.0228;3.4584;73805;2021-05-03 15:37:06:808
5.8855;-7.0288;3.4674;73855;2021-05-03 15:37:06:858
5.8772;-7.0425;3.4441;73905;2021-05-03 15:37:06:908
5.876;-7.0372;3.4231;73954;2021-05-03 15:37:06:957
5.876;-7.0372;3.4231;74005;2021-05-03 15:37:07:008
5.8867;-7.0258;3.4536;74055;2021-05-03 15:37:07:058
5.8885;-7.0312;3.4632;74104;2021-05-03 15:37:07:107
5.8885;-7.0312;3.4632;74155;2021-05-03 15:37:07:158
5.8838;-7.0384;3.4548;74205;2021-05-03 15:37:07:208
5.8849;-7.03;3.4303;74255;2021-05-03 15:37:07:258
5.8981;-7.0192;3.4506;74304;2021-05-03 15:37:07:307
5.8981;-7.0192;3.4506;74355;2021-05-03 15:37:07:358
5.8945;-7.0252;3.4566;74405;2021-05-03 15:37:07:408
5.8915;-7.0282;3.4578;74454;2021-05-03 15:37:07:457
5.8915;-7.0282;3.4578;74505;2021-05-03 15:37:07:508
5.8873;-7.0204;3.4453;74555;2021-05-03 15:37:07:558
5.9011;-7.0234;3.4494;74605;2021-05-03 15:37:07:608
5.8951;-7.0246;3.4602;74655;2021-05-03 15:37:07:658
5.8951;-7.0246;3.4602;74704;2021-05-03 15:37:07:707
5.9017;-7.0252;3.4429;74755;2021-05-03 15:37:07:758
5.8826;-7.0204;3.4435;74805;2021-05-03 15:37:07:808
5.8826;-7.0204;3.4435;74854;2021-05-03 15:37:07:857
5.9029;-7.0132;3.4698;74905;2021-05-03 15:37:07:908
5.9017;-7.0192;3.453;74955;2021-05-03 15:37:07:958
5.9011;-7.0276;3.45;75005;2021-05-03 15:37:08:008
5.9011;-7.0276;3.45;75054;2021-05-03 15:37:08:057
5.8957;-7.0096;3.4279;75105;2021-05-03 15:37:08:108
5.9017;-7.0162;3.4626;75155;2021-05-03 15:37:08:158
5.9017;-7.0162;3.4626;75205;2021-05-03 15:37:08:208
5.8957;-7.024;3.4662;75255;2021-05-03 15:37:08:258
5.8909;-7.0252;3.4506;75305;2021-05-03 15:37:08:308
5.8861;-7.0204;3.4482;75354;2021-05-03 15:37:08:357
5.8861;-7.0204;3.4482;75405;2021-05-03 15:37:08:408
5.8855;-7.018;3.4536;75455;2021-05-03 15:37:08:458
5.8933;-7.0276;3.4542;75504;2021-05-03 15:37:08:507
5.8933;-7.0276;3.4542;75555;2021-05-03 15:37:08:558
5.879;-7.0425;3.4632;75605;2021-05-03 15:37:08:608
5.8419;-7.0443;3.4728;75655;2021-05-03 15:37:08:658
5.8664;-7.0551;3.4536;75705;2021-05-03 15:37:08:708
5.8664;-7.0551;3.4536;75755;2021-05-03 15:37:08:758
5.8562;-7.0354;3.4602;75804;2021-05-03 15:37:08:807
5.8724;-7.0372;3.4692;75855;2021-05-03 15:37:08:858
5.8724;-7.0372;3.4692;75905;2021-05-03 15:37:08:908
5.8454;-7.0431;3.4686;75954;2021-05-03 15:37:08:957
5.8413;-7.0713;3.468;76005;2021-05-03 15:37:09:008
5.8562;-7.0449;3.4548;76055;2021-05-03 15:37:09:058
5.8562;-7.0449;3.4548;76105;2021-05-03 15:37:09:108
5.8658;-7.0324;3.4758;76154;2021-05-03 15:37:09:157
5.8646;-7.039;3.4644;76204;2021-05-03 15:37:09:207
5.8646;-7.039;3.4644;76255;2021-05-03 15:37:09:258
5.8604;-7.0515;3.4596;76304;2021-05-03 15:37:09:307
5.861;-7.0425;3.4578;76355;2021-05-03 15:37:09:358
5.861;-7.0425;3.4578;76405;2021-05-03 15:37:09:408
5.8622;-7.03;3.4734;76455;2021-05-03 15:37:09:458
5.8861;-7.0485;3.4453;76504;2021-05-03 15:37:09:507
5.8634;-7.033;3.4632;76555;2021-05-03 15:37:09:558
5.8634;-7.033;3.4632;76605;2021-05-03 15:37:09:608
5.8742;-7.0228;3.4758;76655;2021-05-03 15:37:09:658
5.8712;-7.0407;3.4716;76705;2021-05-03 15:37:09:708
5.8712;-7.0407;3.4716;76754;2021-05-03 15:37:09:757
5.879;-7.0443;3.4554;76805;2021-05-03 15:37:09:808
5.8754;-7.018;3.4387;76855;2021-05-03 15:37:09:858
5.879;-7.0252;3.4782;76905;2021-05-03 15:37:09:908
5.879;-7.0252;3.4782;76954;2021-05-03 15:37:09:957
5.8808;-7.0306;3.474;77005;2021-05-03 15:37:10:008
5.873;-7.0354;3.4626;77055;2021-05-03 15:37:10:058
5.873;-7.0354;3.4626;77104;2021-05-03 15:37:10:107
5.8891;-7.015;3.4584;77155;2021-05-03 15:37:10:158
5.8826;-7.03;3.4375;77205;2021-05-03 15:37:10:208
5.8969;-7.0198;3.477;77255;2021-05-03 15:37:10:258
5.8969;-7.0198;3.477;77304;2021-05-03 15:37:10:307
5.8843;-7.0114;3.477;77354;2021-05-03 15:37:10:357
5.8808;-7.0288;3.4668;77405;2021-05-03 15:37:10:408
5.8808;-7.0288;3.4668;77455;2021-05-03 15:37:10:458
5.8903;-7.0276;3.4453;77504;2021-05-03 15:37:10:507
5.8969;-7.012;3.4638;77555;2021-05-03 15:37:10:558
5.8963;-7.015;3.4698;77605;2021-05-03 15:37:10:608
5.8963;-7.015;3.4698;77654;2021-05-03 15:37:10:657
5.8951;-7.021;3.4596;77705;2021-05-03 15:37:10:708
5.8933;-7.0168;3.4668;77755;2021-05-03 15:37:10:758
5.8933;-7.0168;3.4668;77805;2021-05-03 15:37:10:808
5.9005;-7.0102;3.4602;77855;2021-05-03 15:37:10:858
5.8963;-7.0138;3.4644;77904;2021-05-03 15:37:10:907
5.8897;-7.0198;3.4596;77955;2021-05-03 15:37:10:958
5.8897;-7.0198;3.4596;78005;2021-05-03 15:37:11:008
5.8838;-7.0204;3.4692;78054;2021-05-03 15:37:11:057
5.8843;-7.0228;3.4722;78105;2021-05-03 15:37:11:108
5.8843;-7.0228;3.4722;78155;2021-05-03 15:37:11:158
5.8766;-7.0168;3.4764;78204;2021-05-03 15:37:11:207
5.8885;-7.039;3.4423;78255;2021-05-03 15:37:11:258
5.8616;-7.0234;3.4722;78305;2021-05-03 15:37:11:308
5.8616;-7.0234;3.4722;78355;2021-05-03 15:37:11:358
5.8724;-7.024;3.4949;78404;2021-05-03 15:37:11:407
5.858;-7.0443;3.4907;78455;2021-05-03 15:37:11:458
5.858;-7.0443;3.4907;78505;2021-05-03 15:37:11:508
5.8436;-7.0384;3.4572;78554;2021-05-03 15:37:11:557
5.8586;-7.0467;3.474;78605;2021-05-03 15:37:11:608
5.8419;-7.0515;3.4967;78655;2021-05-03 15:37:11:658
5.8419;-7.0515;3.4967;78705;2021-05-03 15:37:11:708
5.8281;-7.0473;3.4985;78754;2021-05-03 15:37:11:757
5.8407;-7.0545;3.4806;78805;2021-05-03 15:37:11:808
5.8407;-7.0545;3.4806;78854;2021-05-03 15:37:11:857
5.8329;-7.0491;3.4836;78905;2021-05-03 15:37:11:908
5.8538;-7.0455;3.4722;78955;2021-05-03 15:37:11:958
5.8425;-7.0443;3.4866;79005;2021-05-03 15:37:12:008
5.8425;-7.0443;3.4866;79054;2021-05-03 15:37:12:057
5.8514;-7.0354;3.5033;79105;2021-05-03 15:37:12:108
5.8436;-7.0443;3.4949;79155;2021-05-03 15:37:12:158
5.8436;-7.0443;3.4949;79204;2021-05-03 15:37:12:207
5.8466;-7.0587;3.4818;79255;2021-05-03 15:37:12:258
5.855;-7.033;3.4614;79305;2021-05-03 15:37:12:308
5.855;-7.033;3.4614;79355;2021-05-03 15:37:12:358
5.8526;-7.0258;3.4931;79404;2021-05-03 15:37:12:407
5.8598;-7.0419;3.5033;79455;2021-05-03 15:37:12:458
5.8478;-7.0491;3.4698;79505;2021-05-03 15:37:12:508
5.8478;-7.0491;3.4698;79555;2021-05-03 15:37:12:558
5.8502;-7.0312;3.5003;79604;2021-05-03 15:37:12:607
5.8628;-7.0312;3.4459;79655;2021-05-03 15:37:12:658
5.8628;-7.0312;3.4459;79704;2021-05-03 15:37:12:707
5.8724;-7.0324;3.4997;79754;2021-05-03 15:37:12:757
5.8628;-7.024;3.4949;79805;2021-05-03 15:37:12:808
5.8538;-7.0407;3.4878;79855;2021-05-03 15:37:12:858
5.8538;-7.0407;3.4878;79905;2021-05-03 15:37:12:908
5.8604;-7.0378;3.4626;79955;2021-05-03 15:37:12:958
5.8808;-7.012;3.4806;80005;2021-05-03 15:37:13:008
5.8808;-7.012;3.4806;80054;2021-05-03 15:37:13:057
5.8814;-7.0258;3.486;80105;2021-05-03 15:37:13:108
5.8742;-7.0342;3.4686;80155;2021-05-03 15:37:13:158
5.873;-7.0234;3.4674;80205;2021-05-03 15:37:13:208
5.873;-7.0234;3.4674;80254;2021-05-03 15:37:13:257
5.8903;-7.0072;3.4949;80305;2021-05-03 15:37:13:308
5.8796;-7.0198;3.4788;80355;2021-05-03 15:37:13:358
5.8796;-7.0198;3.4788;80405;2021-05-03 15:37:13:408
5.8826;-7.0348;3.462;80455;2021-05-03 15:37:13:458
5.8843;-7.012;3.471;80505;2021-05-03 15:37:13:508
5.8826;-7.0084;3.4872;80554;2021-05-03 15:37:13:557
5.8826;-7.0084;3.4872;80605;2021-05-03 15:37:13:608
5.8897;-7.0186;3.4824;80655;2021-05-03 15:37:13:658
5.8861;-7.015;3.465;80705;2021-05-03 15:37:13:708
5.8861;-7.015;3.465;80754;2021-05-03 15:37:13:757
5.8897;-7.006;3.4674;80805;2021-05-03 15:37:13:808
5.8957;-7.015;3.4866;80855;2021-05-03 15:37:13:858
5.8873;-7.0132;3.474;80905;2021-05-03 15:37:13:908
5.8873;-7.0132;3.474;80955;2021-05-03 15:37:13:958
5.8754;-7.0168;3.4728;81004;2021-05-03 15:37:14:007
5.8867;-7.0198;3.4758;81055;2021-05-03 15:37:14:058
5.8867;-7.0198;3.4758;81104;2021-05-03 15:37:14:107
5.879;-7.0144;3.4866;81155;2021-05-03 15:37:14:158
5.882;-7.036;3.459;81205;2021-05-03 15:37:14:208
5.8556;-7.0162;3.4824;81254;2021-05-03 15:37:14:257
5.8556;-7.0162;3.4824;81305;2021-05-03 15:37:14:308
5.8766;-7.0198;3.5015;81355;2021-05-03 15:37:14:358
5.8562;-7.0354;3.489;81405;2021-05-03 15:37:14:408
5.8562;-7.0354;3.489;81454;2021-05-03 15:37:14:457
5.8407;-7.0515;3.4722;81505;2021-05-03 15:37:14:508
5.849;-7.0312;3.474;81555;2021-05-03 15:37:14:558
5.8472;-7.0378;3.5129;81605;2021-05-03 15:37:14:608
5.8472;-7.0378;3.5129;81654;2021-05-03 15:37:14:657
5.8389;-7.0503;3.5069;81705;2021-05-03 15:37:14:708
5.8143;-7.0497;3.4973;81755;2021-05-03 15:37:14:758
5.8143;-7.0497;3.4973;81805;2021-05-03 15:37:14:808
5.8371;-7.0665;3.4674;81854;2021-05-03 15:37:14:857
5.8371;-7.0354;3.5003;81904;2021-05-03 15:37:14:907
5.8532;-7.0282;3.5165;81955;2021-05-03 15:37:14:958
5.8532;-7.0282;3.5165;82005;2021-05-03 15:37:15:008
5.8407;-7.0527;3.4967;82055;2021-05-03 15:37:15:058
5.8323;-7.0611;3.4782;82105;2021-05-03 15:37:15:108
5.8323;-7.0611;3.4782;82154;2021-05-03 15:37:15:157
5.8436;-7.0354;3.4806;82205;2021-05-03 15:37:15:208
5.8514;-7.0342;3.5171;82254;2021-05-03 15:37:15:257
5.8514;-7.0342;3.5171;82305;2021-05-03 15:37:15:308
5.8532;-7.0419;3.4919;82354;2021-05-03 15:37:15:357
5.8383;-7.0348;3.4878;82404;2021-05-03 15:37:15:407
5.867;-7.0479;3.4518;82455;2021-05-03 15:37:15:458
5.867;-7.0479;3.4518;82505;2021-05-03 15:37:15:508
5.8616;-7.021;3.4979;82554;2021-05-03 15:37:15:557
5.8664;-7.0204;3.5069;82605;2021-05-03 15:37:15:608
5.8664;-7.0204;3.5069;82655;2021-05-03 15:37:15:658
5.8562;-7.0384;3.4872;82704;2021-05-03 15:37:15:707
5.861;-7.0407;3.4686;82755;2021-05-03 15:37:15:758
5.8706;-7.0138;3.4686;82805;2021-05-03 15:37:15:808
5.8706;-7.0138;3.4686;82855;2021-05-03 15:37:15:858
5.8766;-7.0228;3.5093;82904;2021-05-03 15:37:15:907
5.8712;-7.0246;3.4866;82954;2021-05-03 15:37:15:957
5.8712;-7.0246;3.4866;83005;2021-05-03 15:37:16:008
5.873;-7.0252;3.4734;83055;2021-05-03 15:37:16:058
5.8748;-7.0186;3.4794;83105;2021-05-03 15:37:16:108
5.8826;-7.0198;3.4872;83154;2021-05-03 15:37:16:157
5.8826;-7.0198;3.4872;83205;2021-05-03 15:37:16:208
5.8712;-7.0252;3.486;83255;2021-05-03 15:37:16:258
5.8676;-7.018;3.4836;83304;2021-05-03 15:37:16:307
5.8676;-7.018;3.4836;83355;2021-05-03 15:37:16:358
5.8885;-7.0228;3.4884;83405;2021-05-03 15:37:16:408
5.8766;-7.012;3.489;83455;2021-05-03 15:37:16:458
5.8891;-7.0144;3.4818;83504;2021-05-03 15:37:16:507
5.8891;-7.0144;3.4818;83554;2021-05-03 15:37:16:557
5.8682;-7.0132;3.4854;83605;2021-05-03 15:37:16:608
5.8909;-7.0084;3.5057;83655;2021-05-03 15:37:16:658
5.8909;-7.0084;3.5057;83705;2021-05-03 15:37:16:708
5.8808;-7.0162;3.4997;83754;2021-05-03 15:37:16:757
5.8838;-7.0114;3.4907;83805;2021-05-03 15:37:16:808
5.8873;-7.0012;3.468;83855;2021-05-03 15:37:16:858
5.8873;-7.0012;3.468;83904;2021-05-03 15:37:16:907
5.8951;-7.0066;3.5129;83955;2021-05-03 15:37:16:958
5.8843;-7.0066;3.4961;84004;2021-05-03 15:37:17:007
5.8843;-7.0066;3.4961;84054;2021-05-03 15:37:17:057
5.8838;-7.0054;3.5009;84105;2021-05-03 15:37:17:108
5.8802;-6.9994;3.4955;84155;2021-05-03 15:37:17:158
5.8897;-7.009;3.5123;84204;2021-05-03 15:37:17:207
5.8897;-7.009;3.5123;84255;2021-05-03 15:37:17:258
5.8718;-6.9994;3.5153;84305;2021-05-03 15:37:17:308
5.8873;-7.0096;3.5099;84354;2021-05-03 15:37:17:357
5.8873;-7.0096;3.5099;84404;2021-05-03 15:37:17:407
5.8562;-7.015;3.4961;84455;2021-05-03 15:37:17:458
5.873;-7.0144;3.5386;84505;2021-05-03 15:37:17:508
5.8538;-7.0186;3.5285;84555;2021-05-03 15:37:17:558
5.8538;-7.0186;3.5285;84604;2021-05-03 15:37:17:607
5.8484;-7.0324;3.5207;84655;2021-05-03 15:37:17:658
5.8538;-7.018;3.4907;84705;2021-05-03 15:37:17:708
5.8538;-7.018;3.4907;84754;2021-05-03 15:37:17:757
5.843;-7.0276;3.5434;84805;2021-05-03 15:37:17:808
5.8383;-7.0258;3.5572;84855;2021-05-03 15:37:17:858
5.8191;-7.0306;3.5219;84905;2021-05-03 15:37:17:908
5.8191;-7.0306;3.5219;84954;2021-05-03 15:37:17:957
5.8413;-7.0336;3.5344;85004;2021-05-03 15:37:18:007
5.8478;-7.0348;3.5045;85055;2021-05-03 15:37:18:058
5.8478;-7.0348;3.5045;85105;2021-05-03 15:37:18:108
5.8413;-7.0156;3.553;85155;2021-05-03 15:37:18:158
5.8442;-7.015;3.5494;85204;2021-05-03 15:37:18:207
5.8442;-7.015;3.5494;85255;2021-05-03 15:37:18:258
5.843;-7.0342;3.5225;85305;2021-05-03 15:37:18:308
5.8502;-7.0324;3.5081;85355;2021-05-03 15:37:18:358
5.843;-7.0066;3.5267;85405;2021-05-03 15:37:18:408
5.843;-7.0066;3.5267;85455;2021-05-03 15:37:18:458
5.8586;-7.024;3.5482;85505;2021-05-03 15:37:18:508
5.8442;-7.03;3.5273;85555;2021-05-03 15:37:18:558
5.8442;-7.03;3.5273;85605;2021-05-03 15:37:18:608
5.8389;-7.0168;3.5147;85654;2021-05-03 15:37:18:657
5.8808;-7.0132;3.5243;85705;2021-05-03 15:37:18:708
5.852;-7.0186;3.5093;85755;2021-05-03 15:37:18:758
5.852;-7.0186;3.5093;85805;2021-05-03 15:37:18:808
5.8622;-7.012;3.5392;85854;2021-05-03 15:37:18:857
5.8598;-7.0084;3.5314;85904;2021-05-03 15:37:18:907
5.8598;-7.0084;3.5314;85955;2021-05-03 15:37:18:958
5.8676;-7.0156;3.5249;86004;2021-05-03 15:37:19:007
5.8766;-7.0042;3.5057;86055;2021-05-03 15:37:19:058
5.8724;-7.0042;3.5314;86105;2021-05-03 15:37:19:108
5.8724;-7.0042;3.5314;86155;2021-05-03 15:37:19:158
5.8718;-7.0096;3.5201;86205;2021-05-03 15:37:19:208
5.8652;-7.0096;3.5063;86254;2021-05-03 15:37:19:257
5.8652;-7.0096;3.5063;86305;2021-05-03 15:37:19:308
5.879;-7.009;3.5153;86355;2021-05-03 15:37:19:358
5.8724;-6.9977;3.5117;86405;2021-05-03 15:37:19:408
5.8849;-7.0162;3.5249;86454;2021-05-03 15:37:19:457
5.8849;-7.0162;3.5249;86505;2021-05-03 15:37:19:508
5.8604;-6.9941;3.5057;86555;2021-05-03 15:37:19:558
5.8897;-7.006;3.5267;86605;2021-05-03 15:37:19:608
5.8897;-7.006;3.5267;86654;2021-05-03 15:37:19:657
5.8772;-7.0048;3.5105;86704;2021-05-03 15:37:19:707
5.8909;-7.0012;3.5249;86755;2021-05-03 15:37:19:758
5.8622;-6.9953;3.5057;86805;2021-05-03 15:37:19:808
5.8622;-6.9953;3.5057;86854;2021-05-03 15:37:19:857
5.8933;-7.0042;3.5362;86904;2021-05-03 15:37:19:907
5.8772;-7.0072;3.5261;86955;2021-05-03 15:37:19:958
5.8772;-7.0072;3.5261;87005;2021-05-03 15:37:20:008
5.8556;-7.006;3.5201;87055;2021-05-03 15:37:20:058
5.8808;-7.009;3.5045;87105;2021-05-03 15:37:20:108
5.8622;-7.0012;3.5386;87155;2021-05-03 15:37:20:158
5.8622;-7.0012;3.5386;87205;2021-05-03 15:37:20:208
5.87;-7.0168;3.535;87255;2021-05-03 15:37:20:258
5.852;-7.0246;3.5249;87305;2021-05-03 15:37:20:308
5.852;-7.0246;3.5249;87354;2021-05-03 15:37:20:357
5.8466;-7.015;3.5261;87405;2021-05-03 15:37:20:408
5.8514;-7.0228;3.5368;87455;2021-05-03 15:37:20:458
5.8413;-7.0156;3.5584;87505;2021-05-03 15:37:20:508
5.8413;-7.0156;3.5584;87555;2021-05-03 15:37:20:558
5.8311;-7.0407;3.4997;87605;2021-05-03 15:37:20:608
5.8293;-7.0342;3.5572;87657;2021-05-03 15:37:20:660
5.8293;-7.0342;3.5572;87705;2021-05-03 15:37:20:708
5.8299;-7.0234;3.55;87755;2021-05-03 15:37:20:758
5.8341;-7.0354;3.541;87805;2021-05-03 15:37:20:808
5.8454;-7.0401;3.5129;87854;2021-05-03 15:37:20:857
5.8454;-7.0401;3.5129;87904;2021-05-03 15:37:20:907
5.8275;-7.021;3.5338;87955;2021-05-03 15:37:20:958
5.8502;-7.0336;3.5482;88005;2021-05-03 15:37:21:008
5.8502;-7.0336;3.5482;88054;2021-05-03 15:37:21:057
5.8442;-7.0312;3.5219;88105;2021-05-03 15:37:21:108
5.8293;-7.0192;3.5297;88155;2021-05-03 15:37:21:158
5.8293;-7.0192;3.5297;88205;2021-05-03 15:37:21:208
5.8604;-7.0437;3.4937;88255;2021-05-03 15:37:21:258
5.8269;-7.012;3.5314;88304;2021-05-03 15:37:21:307
5.879;-7.0114;3.5476;88354;2021-05-03 15:37:21:357
5.879;-7.0114;3.5476;88405;2021-05-03 15:37:21:408
5.8604;-7.0455;3.5398;88455;2021-05-03 15:37:21:458
5.8287;-7.0084;3.5213;88504;2021-05-03 15:37:21:507
5.8287;-7.0084;3.5213;88556;2021-05-03 15:37:21:559
5.8694;-7.0054;3.5075;88604;2021-05-03 15:37:21:607
5.8604;-7.0192;3.5476;88655;2021-05-03 15:37:21:658
5.876;-7.0162;3.5243;88704;2021-05-03 15:37:21:707
5.876;-7.0162;3.5243;88755;2021-05-03 15:37:21:758
5.8514;-7.012;3.5057;88805;2021-05-03 15:37:21:808
5.873;-6.9971;3.5243;88855;2021-05-03 15:37:21:858
5.873;-6.9971;3.5243;88904;2021-05-03 15:37:21:907
5.8826;-7.0198;3.5081;88955;2021-05-03 15:37:21:958
5.8664;-7.0066;3.5332;89005;2021-05-03 15:37:22:008
5.8425;-6.9815;3.5153;89054;2021-05-03 15:37:22:057
5.8425;-6.9815;3.5153;89105;2021-05-03 15:37:22:108
5.928;-7.0437;3.5225;89155;2021-05-03 15:37:22:158
5.852;-7.0024;3.4842;89204;2021-05-03 15:37:22:207
5.852;-7.0024;3.4842;89254;2021-05-03 15:37:22:257
5.87;-7.0012;3.5249;89305;2021-05-03 15:37:22:308
5.8808;-7.0096;3.5081;89355;2021-05-03 15:37:22:358
5.8993;-7.0114;3.5021;89405;2021-05-03 15:37:22:408
5.8993;-7.0114;3.5021;89454;2021-05-03 15:37:22:457
5.8676;-7.0192;3.4806;89505;2021-05-03 15:37:22:508
5.8843;-7.0012;3.5213;89555;2021-05-03 15:37:22:558
5.8843;-7.0012;3.5213;89604;2021-05-03 15:37:22:607
5.8616;-7.0;3.4997;89655;2021-05-03 15:37:22:658
5.8849;-7.0192;3.5476;89705;2021-05-03 15:37:22:708
5.8838;-6.9988;3.5147;89755;2021-05-03 15:37:22:758
5.8838;-6.9988;3.5147;89804;2021-05-03 15:37:22:807
5.8586;-7.0024;3.5117;89855;2021-05-03 15:37:22:858
5.8718;-7.0162;3.5033;89905;2021-05-03 15:37:22:908
5.8718;-7.0162;3.5033;89955;2021-05-03 15:37:22:958
5.8628;-7.0252;3.5219;90005;2021-05-03 15:37:23:008
5.8407;-7.0216;3.5434;90055;2021-05-03 15:37:23:058
5.8299;-7.0204;3.5434;90105;2021-05-03 15:37:23:108
5.8299;-7.0204;3.5434;90155;2021-05-03 15:37:23:158
5.8634;-7.0282;3.5225;90204;2021-05-03 15:37:23:207
5.8526;-7.0168;3.5147;90255;2021-05-03 15:37:23:258
5.8526;-7.0168;3.5147;90304;2021-05-03 15:37:23:307
5.8616;-7.0024;3.5308;90354;2021-05-03 15:37:23:357
5.8514;-7.0228;3.544;90405;2021-05-03 15:37:23:408
5.8395;-7.0372;3.5434;90455;2021-05-03 15:37:23:458
5.8395;-7.0372;3.5434;90504;2021-05-03 15:37:23:507
5.8407;-7.0102;3.5219;90555;2021-05-03 15:37:23:558
5.8586;-7.0066;3.5386;90605;2021-05-03 15:37:23:608
5.8586;-7.0066;3.5386;90654;2021-05-03 15:37:23:657
5.8742;-7.0138;3.5225;90705;2021-05-03 15:37:23:708
5.846;-7.0186;3.5482;90755;2021-05-03 15:37:23:758
5.8532;-7.0276;3.5123;90804;2021-05-03 15:37:23:807
5.8532;-7.0276;3.5123;90855;2021-05-03 15:37:23:858
5.8532;-7.0066;3.5297;90905;2021-05-03 15:37:23:908
5.8664;-7.0042;3.5494;90954;2021-05-03 15:37:23:957
5.8664;-7.0042;3.5494;91005;2021-05-03 15:37:24:008
5.8568;-7.0138;3.5368;91055;2021-05-03 15:37:24:058
5.8586;-7.0168;3.5195;91105;2021-05-03 15:37:24:108
5.8586;-7.0168;3.5195;91154;2021-05-03 15:37:24:157
5.8676;-6.9971;3.5177;91204;2021-05-03 15:37:24:207
5.8772;-7.0042;3.5362;91255;2021-05-03 15:37:24:258
5.8754;-7.0114;3.5273;91305;2021-05-03 15:37:24:308
5.8754;-7.0114;3.5273;91355;2021-05-03 15:37:24:358
5.8502;-7.0084;3.5201;91404;2021-05-03 15:37:24:407
5.8754;-7.0018;3.5368;91455;2021-05-03 15:37:24:458
5.8754;-7.0018;3.5368;91505;2021-05-03 15:37:24:508
5.876;-7.0024;3.5057;91554;2021-05-03 15:37:24:557
5.8897;-7.0006;3.5314;91605;2021-05-03 15:37:24:608
5.8694;-7.0012;3.5344;91655;2021-05-03 15:37:24:658
5.8694;-7.0012;3.5344;91705;2021-05-03 15:37:24:708
5.8652;-7.0042;3.5314;91756;2021-05-03 15:37:24:759
5.882;-6.9988;3.5099;91805;2021-05-03 15:37:24:808
5.882;-6.9988;3.5099;91855;2021-05-03 15:37:24:858
5.8921;-6.9917;3.5219;91905;2021-05-03 15:37:24:908
5.879;-6.9947;3.5237;91954;2021-05-03 15:37:24:957
5.87;-7.006;3.5273;92005;2021-05-03 15:37:25:008
5.87;-7.006;3.5273;92055;2021-05-03 15:37:25:058
5.8849;-6.9988;3.5297;92105;2021-05-03 15:37:25:108
5.87;-6.9941;3.5261;92154;2021-05-03 15:37:25:157
5.87;-6.9941;3.5261;92205;2021-05-03 15:37:25:208
5.8933;-7.0054;3.5153;92255;2021-05-03 15:37:25:258
5.8658;-6.9977;3.5027;92305;2021-05-03 15:37:25:308
5.8748;-6.9988;3.562;92354;2021-05-03 15:37:25:357
5.8748;-6.9988;3.562;92405;2021-05-03 15:37:25:408
5.8586;-7.0036;3.5524;92455;2021-05-03 15:37:25:458
5.8574;-7.0258;3.5159;92505;2021-05-03 15:37:25:508
5.8574;-7.0258;3.5159;92554;2021-05-03 15:37:25:557
5.8568;-7.0084;3.5063;92605;2021-05-03 15:37:25:608
5.8574;-7.0096;3.5494;92655;2021-05-03 15:37:25:658
5.8514;-7.0234;3.5494;92705;2021-05-03 15:37:25:708
5.8514;-7.0234;3.5494;92755;2021-05-03 15:37:25:758
5.8275;-7.0306;3.5506;92804;2021-05-03 15:37:25:807
5.8454;-7.0048;3.5434;92855;2021-05-03 15:37:25:858
5.8454;-7.0048;3.5434;92905;2021-05-03 15:37:25:908
5.8371;-7.0336;3.5075;92955;2021-05-03 15:37:25:958
5.8454;-7.021;3.5632;93004;2021-05-03 15:37:26:007
5.8413;-7.009;3.5692;93055;2021-05-03 15:37:26:058
5.8413;-7.009;3.5692;93105;2021-05-03 15:37:26:108
5.8281;-7.03;3.5482;93154;2021-05-03 15:37:26:157
5.8502;-7.0228;3.5147;93205;2021-05-03 15:37:26:208
5.8502;-7.0228;3.5147;93255;2021-05-03 15:37:26:258
5.861;-7.0114;3.5362;93305;2021-05-03 15:37:26:308
5.846;-7.0162;3.55;93354;2021-05-03 15:37:26:357
5.8383;-7.033;3.5596;93406;2021-05-03 15:37:26:409
5.8383;-7.033;3.5596;93454;2021-05-03 15:37:26:457
5.8347;-7.0108;3.5362;93504;2021-05-03 15:37:26:507
5.879;-7.0;3.5404;93555;2021-05-03 15:37:26:558
5.879;-7.0;3.5404;93605;2021-05-03 15:37:26:608
5.8598;-7.0198;3.5033;93655;2021-05-03 15:37:26:658
5.8502;-7.0132;3.5668;93704;2021-05-03 15:37:26:707
5.8472;-7.0012;3.5488;93755;2021-05-03 15:37:26:758
5.8472;-7.0012;3.5488;93805;2021-05-03 15:37:26:808
5.8616;-7.0246;3.538;93854;2021-05-03 15:37:26:857
5.8676;-7.0066;3.5117;93905;2021-05-03 15:37:26:908
5.8676;-7.0066;3.5117;93955;2021-05-03 15:37:26:958
5.8646;-7.0018;3.5368;94005;2021-05-03 15:37:27:008
5.8598;-7.0132;3.5398;94054;2021-05-03 15:37:27:057
5.8598;-7.0132;3.5398;94105;2021-05-03 15:37:27:108
5.8646;-7.0096;3.5524;94155;2021-05-03 15:37:27:158
5.8742;-6.9941;3.5291;94205;2021-05-03 15:37:27:208
5.8712;-6.9971;3.5332;94255;2021-05-03 15:37:27:258
5.8712;-6.9971;3.5332;94304;2021-05-03 15:37:27:307
5.873;-7.0192;3.5159;94355;2021-05-03 15:37:27:358
5.8628;-6.9959;3.5338;94405;2021-05-03 15:37:27:408
5.8628;-6.9959;3.5338;94455;2021-05-03 15:37:27:458
5.8778;-6.9917;3.5596;94505;2021-05-03 15:37:27:508
5.8718;-7.006;3.5344;94555;2021-05-03 15:37:27:558
5.882;-7.0072;3.5027;94604;2021-05-03 15:37:27:607
5.882;-7.0072;3.5027;94655;2021-05-03 15:37:27:658
5.8843;-6.9917;3.5159;94705;2021-05-03 15:37:27:708
5.8634;-6.9911;3.5674;94754;2021-05-03 15:37:27:757
5.8634;-6.9911;3.5674;94804;2021-05-03 15:37:27:807
5.8826;-6.9941;3.538;94855;2021-05-03 15:37:27:858
5.8766;-7.009;3.5015;94905;2021-05-03 15:37:27:908
5.8748;-7.0012;3.5452;94955;2021-05-03 15:37:27:958
5.8748;-7.0012;3.5452;95005;2021-05-03 15:37:28:008
5.861;-6.9994;3.4997;95055;2021-05-03 15:37:28:058
5.8742;-7.0156;3.5811;95105;2021-05-03 15:37:28:108
5.8742;-7.0156;3.5811;95154;2021-05-03 15:37:28:157
5.8622;-6.9929;3.5446;95205;2021-05-03 15:37:28:208
5.8442;-7.0204;3.532;95255;2021-05-03 15:37:28:258
5.8568;-7.021;3.5063;95305;2021-05-03 15:37:28:308
5.8568;-7.021;3.5063;95354;2021-05-03 15:37:28:357
5.87;-7.0012;3.5428;95405;2021-05-03 15:37:28:408
5.8538;-7.0096;3.5638;95455;2021-05-03 15:37:28:458
5.8538;-7.0096;3.5638;95504;2021-05-03 15:37:28:507
5.8299;-7.0312;3.5452;95555;2021-05-03 15:37:28:558
5.8377;-7.021;3.5494;95605;2021-05-03 15:37:28:608
5.8377;-7.0204;3.5111;95655;2021-05-03 15:37:28:658
5.8377;-7.0204;3.5111;95705;2021-05-03 15:37:28:708
5.8556;-7.0216;3.5739;95754;2021-05-03 15:37:28:757
5.8442;-7.0156;3.5632;95805;2021-05-03 15:37:28:808
5.8442;-7.0156;3.5632;95854;2021-05-03 15:37:28:857
5.8586;-7.015;3.5338;95905;2021-05-03 15:37:28:908
5.8604;-7.0312;3.4806;95955;2021-05-03 15:37:28:958
5.855;-7.0312;3.5195;96005;2021-05-03 15:37:29:008
5.855;-7.0312;3.5195;96054;2021-05-03 15:37:29:057
5.8622;-7.0114;3.5368;96105;2021-05-03 15:37:29:108
5.8598;-7.0216;3.5129;96155;2021-05-03 15:37:29:158
5.8598;-7.0216;3.5129;96205;2021-05-03 15:37:29:208
5.8957;-7.006;3.5009;96254;2021-05-03 15:37:29:257
5.8855;-7.0072;3.4554;96304;2021-05-03 15:37:29:307
5.8754;-6.9911;3.5237;96355;2021-05-03 15:37:29:358
5.8754;-6.9911;3.5237;96405;2021-05-03 15:37:29:408
5.9017;-6.9288;3.565;96454;2021-05-03 15:37:29:457
5.9035;-6.9881;3.6152;96505;2021-05-03 15:37:29:508
5.9035;-6.9881;3.6152;96555;2021-05-03 15:37:29:558
5.8742;-6.9851;3.5632;96604;2021-05-03 15:37:29:607
5.8221;-6.9827;3.5811;96655;2021-05-03 15:37:29:658
5.9328;-6.9593;3.5452;96705;2021-05-03 15:37:29:708
5.9328;-6.9593;3.5452;96754;2021-05-03 15:37:29:757
5.9634;-6.9701;3.5063;96804;2021-05-03 15:37:29:807
5.8772;-6.9701;3.5297;96855;2021-05-03 15:37:29:858
5.8772;-6.9701;3.5297;96905;2021-05-03 15:37:29:908
5.8957;-6.9342;3.5434;96954;2021-05-03 15:37:29:957
5.9723;-6.9587;3.462;97007;2021-05-03 15:37:30:010
5.9723;-6.9587;3.462;97054;2021-05-03 15:37:30:057
5.9544;-6.9677;3.5015;97105;2021-05-03 15:37:30:108
5.9622;-6.9013;3.4788;97155;2021-05-03 15:37:30:158
5.9274;-6.9414;3.5536;97204;2021-05-03 15:37:30:207
5.9274;-6.9414;3.5536;97254;2021-05-03 15:37:30:257
5.9047;-6.9785;3.6027;97304;2021-05-03 15:37:30:307
5.9149;-6.9198;3.5267;97355;2021-05-03 15:37:30:358
5.9149;-6.9198;3.5267;97405;2021-05-03 15:37:30:408
5.9652;-6.9474;3.538;97454;2021-05-03 15:37:30:457
5.9149;-6.933;3.5721;97504;2021-05-03 15:37:30:507
5.9376;-6.945;3.5536;97555;2021-05-03 15:37:30:558
5.9376;-6.945;3.5536;97605;2021-05-03 15:37:30:608
5.937;-6.9294;3.5967;97655;2021-05-03 15:37:30:658
5.9173;-6.8983;3.6057;97704;2021-05-03 15:37:30:707
5.9173;-6.8983;3.6057;97755;2021-05-03 15:37:30:758
5.9304;-6.9522;3.5913;97805;2021-05-03 15:37:30:808
5.9137;-6.9414;3.5428;97854;2021-05-03 15:37:30:857
5.9185;-6.9294;3.5781;97905;2021-05-03 15:37:30:908
5.9185;-6.9294;3.5781;97955;2021-05-03 15:37:30:958
5.9149;-6.9324;3.6039;98004;2021-05-03 15:37:31:007
5.9059;-6.945;3.6099;98055;2021-05-03 15:37:31:058
5.9059;-6.945;3.6099;98105;2021-05-03 15:37:31:108
5.9005;-6.9306;3.6422;98155;2021-05-03 15:37:31:158
5.8885;-6.9486;3.5488;98205;2021-05-03 15:37:31:208
5.9041;-6.9528;3.5973;98255;2021-05-03 15:37:31:258
5.9041;-6.9528;3.5973;98304;2021-05-03 15:37:31:307
5.9137;-6.9228;3.6206;98355;2021-05-03 15:37:31:358
5.9059;-6.9432;3.629;98405;2021-05-03 15:37:31:408
5.9059;-6.9432;3.629;98454;2021-05-03 15:37:31:457
5.882;-6.9474;3.5991;98504;2021-05-03 15:37:31:507
5.9203;-6.9228;3.6003;98555;2021-05-03 15:37:31:558
5.9286;-6.921;3.5967;98605;2021-05-03 15:37:31:608
5.9286;-6.921;3.5967;98654;2021-05-03 15:37:31:657
5.9065;-6.9336;3.6099;98705;2021-05-03 15:37:31:708
5.9298;-6.9246;3.5829;98755;2021-05-03 15:37:31:758
5.9298;-6.9246;3.5829;98805;2021-05-03 15:37:31:808
5.9059;-6.9252;3.5811;98855;2021-05-03 15:37:31:858
5.9304;-6.9174;3.6266;98904;2021-05-03 15:37:31:907
5.9298;-6.9133;3.626;98954;2021-05-03 15:37:31:957
5.9298;-6.9133;3.626;99005;2021-05-03 15:37:32:008
5.9221;-6.9324;3.5955;99055;2021-05-03 15:37:32:058
5.9209;-6.9157;3.5716;99104;2021-05-03 15:37:32:107
5.9209;-6.9157;3.5716;99154;2021-05-03 15:37:32:157
5.946;-6.9061;3.6105;99205;2021-05-03 15:37:32:208
5.9352;-6.9019;3.6224;99255;2021-05-03 15:37:32:258
5.9161;-6.9097;3.6075;99305;2021-05-03 15:37:32:308
5.9161;-6.9097;3.6075;99355;2021-05-03 15:37:32:358
5.9352;-6.9198;3.6063;99404;2021-05-03 15:37:32:407
5.9185;-6.9204;3.5913;99455;2021-05-03 15:37:32:458
5.9185;-6.9204;3.5913;99505;2021-05-03 15:37:32:508
5.9532;-6.8953;3.6218;99554;2021-05-03 15:37:32:557
5.9268;-6.8863;3.6182;99605;2021-05-03 15:37:32:608
5.9328;-6.9228;3.6105;99655;2021-05-03 15:37:32:658
5.9328;-6.9228;3.6105;99705;2021-05-03 15:37:32:708
5.9155;-6.9198;3.6069;99754;2021-05-03 15:37:32:757
5.9292;-6.9055;3.644;99805;2021-05-03 15:37:32:808
5.9292;-6.9055;3.644;99855;2021-05-03 15:37:32:858
5.9364;-6.8941;3.6039;99905;2021-05-03 15:37:32:908
5.9149;-6.9037;3.6194;99955;2021-05-03 15:37:32:958
5.9442;-6.9402;3.6374;100005;2021-05-03 15:37:33:008
5.9442;-6.9402;3.6374;100055;2021-05-03 15:37:33:058
5.9382;-6.8857;3.5656;100105;2021-05-03 15:37:33:108
5.9149;-6.9127;3.6266;100154;2021-05-03 15:37:33:157
5.9149;-6.9127;3.6266;100205;2021-05-03 15:37:33:208
5.9011;-6.9067;3.6799;100255;2021-05-03 15:37:33:258
5.8981;-6.9186;3.6434;100305;2021-05-03 15:37:33:308
5.8981;-6.9186;3.6434;100354;2021-05-03 15:37:33:357
5.9095;-6.9342;3.6296;100405;2021-05-03 15:37:33:408
5.9304;-6.9007;3.5787;100454;2021-05-03 15:37:33:457
5.9364;-6.8923;3.6368;100505;2021-05-03 15:37:33:508
5.9364;-6.8923;3.6368;100555;2021-05-03 15:37:33:558
5.8969;-6.9037;3.6404;100604;2021-05-03 15:37:33:607
5.8951;-6.9432;3.6374;100655;2021-05-03 15:37:33:658
5.8951;-6.9432;3.6374;100705;2021-05-03 15:37:33:708
5.9047;-6.9378;3.647;100755;2021-05-03 15:37:33:758
5.9604;-6.8905;3.5668;100804;2021-05-03 15:37:33:807
5.949;-6.8744;3.5704;100855;2021-05-03 15:37:33:858
5.949;-6.8744;3.5704;100905;2021-05-03 15:37:33:908
5.9484;-6.9091;3.5991;100955;2021-05-03 15:37:33:958
5.9268;-6.9294;3.5883;101004;2021-05-03 15:37:34:007
5.9268;-6.9294;3.5883;101055;2021-05-03 15:37:34:058
5.9137;-6.9162;3.5841;101105;2021-05-03 15:37:34:108
5.934;-6.9228;3.6356;101154;2021-05-03 15:37:34:157
5.9472;-6.8905;3.5751;101205;2021-05-03 15:37:34:208
5.9472;-6.8905;3.5751;101255;2021-05-03 15:37:34:258
5.9011;-6.9306;3.6087;101305;2021-05-03 15:37:34:308
5.9191;-6.9402;3.5811;101355;2021-05-03 15:37:34:358
5.9191;-6.9402;3.5811;101405;2021-05-03 15:37:34:408
5.9592;-6.9318;3.5991;101454;2021-05-03 15:37:34:457
5.9424;-6.8702;3.532;101505;2021-05-03 15:37:34:508
5.8903;-6.933;3.6865;101555;2021-05-03 15:37:34:558
5.8903;-6.933;3.6865;101604;2021-05-03 15:37:34:607
5.8855;-6.9192;3.6643;101655;2021-05-03 15:37:34:658
5.9268;-6.9617;3.6021;101705;2021-05-03 15:37:34:708
5.9268;-6.9617;3.6021;101754;2021-05-03 15:37:34:757
5.9448;-6.9378;3.4722;101804;2021-05-03 15:37:34:807
5.9424;-6.8893;3.5572;101855;2021-05-03 15:37:34:858
5.9155;-6.8875;3.6553;101905;2021-05-03 15:37:34:908
5.9155;-6.8875;3.6553;101955;2021-05-03 15:37:34:958
5.9017;-6.9432;3.717;102005;2021-05-03 15:37:35:008
5.8646;-6.9785;3.6242;102054;2021-05-03 15:37:35:057
5.8646;-6.9785;3.6242;102104;2021-05-03 15:37:35:107
5.9203;-6.8851;3.3908;102155;2021-05-03 15:37:35:158
5.867;-6.9851;3.623;102204;2021-05-03 15:37:35:207
5.8377;-6.9785;3.7409;102255;2021-05-03 15:37:35:258
5.8377;-6.9785;3.7409;102305;2021-05-03 15:37:35:308
5.8514;-6.9719;3.7164;102355;2021-05-03 15:37:35:358
5.8742;-6.9366;3.6272;102405;2021-05-03 15:37:35:408
5.8742;-6.9366;3.6272;102455;2021-05-03 15:37:35:458
5.9478;-6.921;3.5602;102504;2021-05-03 15:37:35:507
5.9089;-6.9372;3.553;102555;2021-05-03 15:37:35:558
5.9113;-6.9629;3.5889;102605;2021-05-03 15:37:35:608
5.9113;-6.9629;3.5889;102654;2021-05-03 15:37:35:657
5.9059;-6.9396;3.6063;102704;2021-05-03 15:37:35:707
5.8658;-6.9031;3.7122;102755;2021-05-03 15:37:35:758
5.8658;-6.9031;3.7122;102805;2021-05-03 15:37:35:808
5.9562;-6.9348;3.5147;102854;2021-05-03 15:37:35:857
5.9209;-6.9558;3.5698;102905;2021-05-03 15:37:35:908
5.8682;-6.9324;3.635;102955;2021-05-03 15:37:35:958
5.8682;-6.9324;3.635;103005;2021-05-03 15:37:36:008
5.8742;-6.9318;3.65;103054;2021-05-03 15:37:36:057
5.9059;-6.9833;3.6392;103104;2021-05-03 15:37:36:107
5.9059;-6.9833;3.6392;103155;2021-05-03 15:37:36:158
5.9179;-6.9528;3.468;103205;2021-05-03 15:37:36:208
5.9388;-6.9929;3.5273;103255;2021-05-03 15:37:36:258
5.9131;-6.9611;3.4979;103304;2021-05-03 15:37:36:307
5.9131;-6.9611;3.4979;103355;2021-05-03 15:37:36:358
6.0196;-6.8528;3.3357;103405;2021-05-03 15:37:36:408
5.9969;-7.0832;3.3998;103455;2021-05-03 15:37:36:458
5.9969;-7.0832;3.3998;103505;2021-05-03 15:37:36:508
5.9352;-6.9516;3.3758;103554;2021-05-03 15:37:36:557
5.9268;-6.8606;3.4189;103605;2021-05-03 15:37:36:608
5.9035;-7.0132;3.7362;103655;2021-05-03 15:37:36:658
5.9035;-7.0132;3.7362;103704;2021-05-03 15:37:36:707
5.9562;-6.9953;3.5171;103754;2021-05-03 15:37:36:757
5.8855;-6.9755;3.4482;103805;2021-05-03 15:37:36:808
5.8855;-6.9755;3.4482;103855;2021-05-03 15:37:36:858
5.8897;-6.9917;3.4183;103904;2021-05-03 15:37:36:907
6.0118;-7.0018;3.3788;103955;2021-05-03 15:37:36:958
6.0118;-7.0018;3.3788;104004;2021-05-03 15:37:37:007
6.0053;-6.954;3.4842;104055;2021-05-03 15:37:37:058
6.0041;-6.939;3.4135;104105;2021-05-03 15:37:37:108
5.9957;-6.9222;3.3896;104155;2021-05-03 15:37:37:158
5.9957;-6.9222;3.3896;104204;2021-05-03 15:37:37:207
6.0346;-6.9575;3.386;104255;2021-05-03 15:37:37:258
6.0005;-6.9635;3.4494;104305;2021-05-03 15:37:37:308
6.0005;-6.9635;3.4494;104354;2021-05-03 15:37:37:357
5.9777;-6.939;3.4261;104405;2021-05-03 15:37:37:408
5.9993;-6.9354;3.4219;104455;2021-05-03 15:37:37:458
6.0142;-6.9468;3.4255;104505;2021-05-03 15:37:37:508
6.0142;-6.9468;3.4255;104554;2021-05-03 15:37:37:557
6.0166;-6.9462;3.4309;104604;2021-05-03 15:37:37:607
6.0071;-6.9198;3.4231;104654;2021-05-03 15:37:37:657
6.0071;-6.9198;3.4231;104705;2021-05-03 15:37:37:708
6.013;-6.9492;3.3968;104755;2021-05-03 15:37:37:758
6.0274;-6.9133;3.4255;104805;2021-05-03 15:37:37:808
6.034;-6.9246;3.4554;104855;2021-05-03 15:37:37:858
6.034;-6.9246;3.4554;104904;2021-05-03 15:37:37:907
6.0298;-6.9157;3.4255;104955;2021-05-03 15:37:37:958
6.0328;-6.9186;3.4105;105005;2021-05-03 15:37:38:008
6.0328;-6.9186;3.4105;105054;2021-05-03 15:37:38:057
6.043;-6.9049;3.4153;105104;2021-05-03 15:37:38:107
6.0442;-6.9097;3.4333;105155;2021-05-03 15:37:38:158
6.043;-6.918;3.4213;105205;2021-05-03 15:37:38:208
6.043;-6.918;3.4213;105254;2021-05-03 15:37:38:257
6.0298;-6.9049;3.4327;105305;2021-05-03 15:37:38:308
6.0543;-6.8935;3.4279;105355;2021-05-03 15:37:38:358
6.0543;-6.8935;3.4279;105405;2021-05-03 15:37:38:408
6.0615;-6.9007;3.4267;105454;2021-05-03 15:37:38:457
6.0358;-6.9198;3.4141;105505;2021-05-03 15:37:38:508
6.0262;-6.9037;3.4297;105555;2021-05-03 15:37:38:558
6.0262;-6.9037;3.4297;105605;2021-05-03 15:37:38:608
6.0454;-6.8917;3.4393;105654;2021-05-03 15:37:38:657
6.0567;-6.9049;3.4405;105704;2021-05-03 15:37:38:707
6.0567;-6.9049;3.4405;105755;2021-05-03 15:37:38:758
6.0454;-6.9085;3.4231;105805;2021-05-03 15:37:38:808
6.0531;-6.8917;3.4171;105854;2021-05-03 15:37:38:857
6.0495;-6.8827;3.4315;105905;2021-05-03 15:37:38:908
6.0495;-6.8827;3.4315;105955;2021-05-03 15:37:38:958
6.0729;-6.9252;3.4147;106005;2021-05-03 15:37:39:008
6.0298;-6.8893;3.4285;106054;2021-05-03 15:37:39:057
6.0298;-6.8893;3.4285;106105;2021-05-03 15:37:39:108
6.0549;-6.8917;3.45;106154;2021-05-03 15:37:39:157
6.0442;-6.9001;3.4345;106205;2021-05-03 15:37:39:208
6.0478;-6.9151;3.4165;106254;2021-05-03 15:37:39:257
6.0478;-6.9151;3.4165;106305;2021-05-03 15:37:39:308
6.0388;-6.8947;3.4249;106354;2021-05-03 15:37:39:357
6.0358;-6.9067;3.4494;106405;2021-05-03 15:37:39:408
6.0358;-6.9067;3.4494;106455;2021-05-03 15:37:39:458
6.0388;-6.921;3.4393;106504;2021-05-03 15:37:39:507
6.0148;-6.9133;3.4423;106555;2021-05-03 15:37:39:558
6.031;-6.9384;3.4087;106606;2021-05-03 15:37:39:609
6.031;-6.9384;3.4087;106655;2021-05-03 15:37:39:658
6.0148;-6.9157;3.4297;106704;2021-05-03 15:37:39:707
6.0082;-6.9324;3.4345;106755;2021-05-03 15:37:39:758
6.0082;-6.9324;3.4345;106805;2021-05-03 15:37:39:808
5.9975;-6.9432;3.4267;106855;2021-05-03 15:37:39:858
5.9969;-6.9498;3.3992;106904;2021-05-03 15:37:39:907
6.0136;-6.9318;3.4387;106955;2021-05-03 15:37:39:958
6.0136;-6.9318;3.4387;107005;2021-05-03 15:37:40:008
6.0244;-6.9162;3.453;107054;2021-05-03 15:37:40:057
6.0142;-6.9366;3.4135;107105;2021-05-03 15:37:40:108
6.0142;-6.9366;3.4135;107155;2021-05-03 15:37:40:158
6.0346;-6.942;3.401;107204;2021-05-03 15:37:40:207
6.0035;-6.93;3.3974;107255;2021-05-03 15:37:40:258
6.0352;-6.9162;3.459;107304;2021-05-03 15:37:40:307
6.0352;-6.9162;3.459;107354;2021-05-03 15:37:40:357
6.0382;-6.921;3.4614;107405;2021-05-03 15:37:40:408
6.0472;-6.9115;3.3782;107455;2021-05-03 15:37:40:458
6.0472;-6.9115;3.3782;107505;2021-05-03 15:37:40:508
6.037;-6.918;3.3788;107554;2021-05-03 15:37:40:557
6.0448;-6.9055;3.4231;107605;2021-05-03 15:37:40:608
6.0472;-6.9043;3.4399;107655;2021-05-03 15:37:40:658
6.0472;-6.9043;3.4399;107704;2021-05-03 15:37:40:707
6.0286;-6.9324;3.4285;107755;2021-05-03 15:37:40:758
6.0633;-6.8941;3.395;107805;2021-05-03 15:37:40:808
6.0633;-6.8941;3.395;107855;2021-05-03 15:37:40:858
6.0567;-6.8899;3.377;107904;2021-05-03 15:37:40:907
6.0657;-6.9103;3.4309;107955;2021-05-03 15:37:40:958
6.0466;-6.9007;3.4584;108005;2021-05-03 15:37:41:008
6.0466;-6.9007;3.4584;108055;2021-05-03 15:37:41:058
6.0328;-6.8923;3.4494;108105;2021-05-03 15:37:41:108
6.0639;-6.8911;3.3998;108154;2021-05-03 15:37:41:157
6.0639;-6.8911;3.3998;108205;2021-05-03 15:37:41:208
6.0789;-6.9103;3.3992;108255;2021-05-03 15:37:41:258
6.0484;-6.9007;3.4237;108305;2021-05-03 15:37:41:308
6.0484;-6.9007;3.4237;108355;2021-05-03 15:37:41:358
6.0376;-6.8863;3.4423;108405;2021-05-03 15:37:41:408
6.0597;-6.8887;3.4494;108454;2021-05-03 15:37:41:457
6.049;-6.9276;3.3908;108504;2021-05-03 15:37:41:507
6.049;-6.9276;3.3908;108555;2021-05-03 15:37:41:558
6.0418;-6.8917;3.4297;108605;2021-05-03 15:37:41:608
6.043;-6.8965;3.4494;108654;2021-05-03 15:37:41:657
6.043;-6.8965;3.4494;108705;2021-05-03 15:37:41:708
6.0334;-6.9133;3.4423;108755;2021-05-03 15:37:41:758
6.0226;-6.9228;3.4171;108804;2021-05-03 15:37:41:807
6.0196;-6.9151;3.4357;108854;2021-05-03 15:37:41:857
6.0196;-6.9151;3.4357;108905;2021-05-03 15:37:41:908
6.0106;-6.9258;3.4554;108955;2021-05-03 15:37:41:958
6.0011;-6.9372;3.4471;109004;2021-05-03 15:37:42:007
6.0011;-6.9372;3.4471;109055;2021-05-03 15:37:42:058
5.9927;-6.9252;3.4506;109105;2021-05-03 15:37:42:108
6.0382;-6.9468;3.4099;109155;2021-05-03 15:37:42:158
5.9999;-6.9055;3.4435;109205;2021-05-03 15:37:42:208
5.9999;-6.9055;3.4435;109255;2021-05-03 15:37:42:258
6.0448;-6.9043;3.4435;109305;2021-05-03 15:37:42:308
6.0328;-6.948;3.4363;109355;2021-05-03 15:37:42:358
6.0328;-6.948;3.4363;109405;2021-05-03 15:37:42:408
6.0454;-6.9881;3.477;109455;2021-05-03 15:37:42:458
6.0549;-6.8965;3.368;109505;2021-05-03 15:37:42:508
6.1148;-6.9546;3.1723;109555;2021-05-03 15:37:42:558
6.1148;-6.9546;3.1723;109605;2021-05-03 15:37:42:608
6.1208;-6.9737;3.0813;109655;2021-05-03 15:37:42:658
6.0956;-6.9659;2.9281;109704;2021-05-03 15:37:42:707
6.0956;-6.9659;2.9281;109754;2021-05-03 15:37:42:757
6.1154;-7.0587;3.1298;109805;2021-05-03 15:37:42:808
6.0466;-7.0479;3.0867;109855;2021-05-03 15:37:42:858
6.1639;-7.1078;3.0245;109905;2021-05-03 15:37:42:908
6.1639;-7.1078;3.0245;109954;2021-05-03 15:37:42:957
6.0154;-7.1299;3.0867;110004;2021-05-03 15:37:43:007
6.268;-6.9426;2.6965;110055;2021-05-03 15:37:43:058
6.268;-6.9426;2.6965;110105;2021-05-03 15:37:43:108
6.365;-7.0491;2.6091;110154;2021-05-03 15:37:43:157
6.3177;-7.2963;2.4104;110205;2021-05-03 15:37:43:208
6.3069;-6.9947;2.4421;110255;2021-05-03 15:37:43:258
6.3069;-6.9947;2.4421;110305;2021-05-03 15:37:43:308
6.505;-6.9318;2.0452;110354;2021-05-03 15:37:43:357
6.6726;-7.0731;1.6718;110405;2021-05-03 15:37:43:408
6.6726;-7.0731;1.6718;110455;2021-05-03 15:37:43:458
6.6391;-7.0048;1.564;110505;2021-05-03 15:37:43:508
6.6415;-6.9845;1.5089;110554;2021-05-03 15:37:43:557
6.7367;-6.9749;1.6185;110605;2021-05-03 15:37:43:608
6.7367;-6.9749;1.6185;110654;2021-05-03 15:37:43:657
6.6283;-6.8971;1.309;110705;2021-05-03 15:37:43:708
6.6337;-7.036;0.7536;110755;2021-05-03 15:37:43:758
6.6337;-7.036;0.7536;110804;2021-05-03 15:37:43:807
6.6535;-7.2748;0.7566;110855;2021-05-03 15:37:43:858
6.6218;-7.2401;1.3785;110905;2021-05-03 15:37:43:908
6.599;-7.082;1.1857;110955;2021-05-03 15:37:43:958
6.599;-7.082;1.1857;111004;2021-05-03 15:37:44:007
6.6421;-7.0629;0.8697;111055;2021-05-03 15:37:44:058
6.7678;-7.0737;0.8769;111105;2021-05-03 15:37:44:108
6.7678;-7.0737;0.8769;111155;2021-05-03 15:37:44:158
6.8127;-7.0785;0.7883;111204;2021-05-03 15:37:44:207
6.5577;-7.0521;0.9008;111255;2021-05-03 15:37:44:258
6.7086;-7.1114;0.9248;111305;2021-05-03 15:37:44:308
6.7086;-7.1114;0.9248;111354;2021-05-03 15:37:44:357
6.7044;-7.0611;1.0277;111404;2021-05-03 15:37:44:407
6.7127;-7.1862;1.0451;111455;2021-05-03 15:37:44:458
6.7127;-7.1862;1.0451;111505;2021-05-03 15:37:44:508
6.7672;-7.0018;0.9122;111555;2021-05-03 15:37:44:558
6.7421;-7.0599;0.9218;111605;2021-05-03 15:37:44:608
6.7229;-7.0641;0.7272;111654;2021-05-03 15:37:44:657
6.7229;-7.0641;0.7272;111705;2021-05-03 15:37:44:708
6.7804;-7.0228;0.8918;111755;2021-05-03 15:37:44:758
6.7528;-7.015;0.8021;111804;2021-05-03 15:37:44:807
6.7528;-7.015;0.8021;111855;2021-05-03 15:37:44:858
6.8277;-6.8851;0.729;111905;2021-05-03 15:37:44:908
6.8295;-6.9252;0.7452;111955;2021-05-03 15:37:44:958
6.7181;-7.188;0.7476;112005;2021-05-03 15:37:45:008
6.7181;-7.188;0.7476;112054;2021-05-03 15:37:45:057
6.9486;-6.8384;0.9673;112105;2021-05-03 15:37:45:108
6.9037;-6.9192;0.7272;112155;2021-05-03 15:37:45:158
6.9037;-6.9192;0.7272;112205;2021-05-03 15:37:45:208
6.9258;-6.9258;0.68;112255;2021-05-03 15:37:45:258
6.8342;-6.8474;0.9074;112304;2021-05-03 15:37:45:307
6.8342;-6.8474;0.9074;112355;2021-05-03 15:37:45:358
6.9833;-6.9306;0.9984;112404;2021-05-03 15:37:45:407
6.8911;-6.921;0.729;112455;2021-05-03 15:37:45:458
6.7947;-6.8169;0.7482;112505;2021-05-03 15:37:45:508
6.7947;-6.8169;0.7482;112555;2021-05-03 15:37:45:558
7.0156;-6.8229;1.0594;112604;2021-05-03 15:37:45:607
7.2227;-6.8869;0.978;112655;2021-05-03 15:37:45:658
7.2227;-6.8869;0.978;112705;2021-05-03 15:37:45:708
6.9857;-6.8851;0.562;112754;2021-05-03 15:37:45:757
6.623;-6.5218;0.3394;112805;2021-05-03 15:37:45:808
7.2598;-7.1808;0.6369;112855;2021-05-03 15:37:45:858
7.2598;-7.1808;0.6369;112905;2021-05-03 15:37:45:908
6.8331;-6.875;0.7189;112954;2021-05-03 15:37:45:957
7.0156;-6.6906;0.7087;113005;2021-05-03 15:37:46:008
7.0156;-6.6906;0.7087;113055;2021-05-03 15:37:46:058
6.9139;-6.7558;0.6422;113105;2021-05-03 15:37:46:108
6.9647;-6.8043;0.656;113155;2021-05-03 15:37:46:158
6.9384;-7.1838;0.9194;113204;2021-05-03 15:37:46:207
6.9384;-7.1838;0.9194;113255;2021-05-03 15:37:46:258
6.8624;-6.9683;1.2157;113305;2021-05-03 15:37:46:308
6.8097;-6.8732;1.1666;113355;2021-05-03 15:37:46:358
6.8097;-6.8732;1.1666;113405;2021-05-03 15:37:46:408
6.8612;-6.8702;1.1085;113454;2021-05-03 15:37:46:457
6.936;-6.933;1.0271;113505;2021-05-03 15:37:46:508
6.863;-6.9139;0.9307;113555;2021-05-03 15:37:46:558
6.863;-6.9139;0.9307;113605;2021-05-03 15:37:46:608
6.8229;-6.9007;1.063;113654;2021-05-03 15:37:46:657
6.7947;-6.9426;1.0451;113704;2021-05-03 15:37:46:707
6.7947;-6.9426;1.0451;113755;2021-05-03 15:37:46:758
6.8564;-6.9719;1.1247;113805;2021-05-03 15:37:46:808
6.8378;-6.9617;1.1037;113854;2021-05-03 15:37:46:857
6.7906;-6.9438;1.0481;113904;2021-05-03 15:37:46:907
6.7906;-6.9438;1.0481;113955;2021-05-03 15:37:46:958
6.781;-6.954;1.0229;114005;2021-05-03 15:37:47:008
6.8211;-6.9701;1.0756;114055;2021-05-03 15:37:47:058
6.8211;-6.9701;1.0756;114105;2021-05-03 15:37:47:108
6.8235;-6.9725;1.0995;114155;2021-05-03 15:37:47:158
6.7947;-6.9593;1.0918;114205;2021-05-03 15:37:47:208
6.8301;-6.9617;1.0391;114254;2021-05-03 15:37:47:257
6.8301;-6.9617;1.0391;114305;2021-05-03 15:37:47:308
6.8139;-6.9372;1.0594;114355;2021-05-03 15:37:47:358
6.845;-6.942;1.0888;114405;2021-05-03 15:37:47:408
6.845;-6.942;1.0888;114454;2021-05-03 15:37:47:457
6.8259;-6.9378;1.0959;114505;2021-05-03 15:37:47:508
6.8348;-6.945;1.0534;114555;2021-05-03 15:37:47:558
6.8295;-6.9288;1.0552;114605;2021-05-03 15:37:47:608
6.8295;-6.9288;1.0552;114655;2021-05-03 15:37:47:658
6.8618;-6.9162;1.0786;114704;2021-05-03 15:37:47:707
6.866;-6.921;1.0804;114755;2021-05-03 15:37:47:758
6.866;-6.921;1.0804;114805;2021-05-03 15:37:47:808
6.8534;-6.9109;1.0702;114854;2021-05-03 15:37:47:857
6.8863;-6.9031;1.0289;114905;2021-05-03 15:37:47:908
6.8654;-6.9043;1.0864;114955;2021-05-03 15:37:47:958
6.8654;-6.9043;1.0864;115005;2021-05-03 15:37:48:008
6.8845;-6.8779;1.0816;115054;2021-05-03 15:37:48:057
6.8959;-6.8869;1.0846;115104;2021-05-03 15:37:48:107
6.8959;-6.8869;1.0846;115154;2021-05-03 15:37:48:157
6.8893;-6.8887;1.0469;115205;2021-05-03 15:37:48:208
6.8738;-6.8678;1.0588;115255;2021-05-03 15:37:48:258
6.9312;-6.872;1.0463;115305;2021-05-03 15:37:48:308
6.9312;-6.872;1.0463;115354;2021-05-03 15:37:48:357
6.9198;-6.8486;1.0505;115405;2021-05-03 15:37:48:408
6.936;-6.8277;1.0355;115455;2021-05-03 15:37:48:458
6.936;-6.8277;1.0355;115505;2021-05-03 15:37:48:508
6.9492;-6.8564;0.984;115554;2021-05-03 15:37:48:557
6.9498;-6.8552;0.9864;115604;2021-05-03 15:37:48:607
6.936;-6.8289;1.0002;115655;2021-05-03 15:37:48:658
6.936;-6.8289;1.0002;115705;2021-05-03 15:37:48:708
6.9546;-6.8289;0.9703;115755;2021-05-03 15:37:48:758
6.9581;-6.8313;0.9637;115804;2021-05-03 15:37:48:807
6.9581;-6.8313;0.9637;115855;2021-05-03 15:37:48:858
6.9593;-6.8336;0.9589;115905;2021-05-03 15:37:48:908
6.9629;-6.8127;0.9792;115955;2021-05-03 15:37:48:958
6.9629;-6.8127;0.9792;116004;2021-05-03 15:37:49:007
6.9474;-6.8684;0.978;116055;2021-05-03 15:37:49:058
6.9635;-6.8151;0.993;116105;2021-05-03 15:37:49:108
6.9516;-6.8283;0.9912;116155;2021-05-03 15:37:49:158
6.9516;-6.8283;0.9912;116205;2021-05-03 15:37:49:208
6.9336;-6.8582;0.9888;116255;2021-05-03 15:37:49:258
6.9145;-6.8678;0.9762;116305;2021-05-03 15:37:49:308
6.9145;-6.8678;0.9762;116354;2021-05-03 15:37:49:357
6.9198;-6.8552;0.9882;116405;2021-05-03 15:37:49:408
6.9103;-6.8732;1.0104;116455;2021-05-03 15:37:49:458
6.8947;-6.8971;0.996;116505;2021-05-03 15:37:49:508
6.8947;-6.8971;0.996;116554;2021-05-03 15:37:49:557
6.8827;-6.9031;0.9738;116605;2021-05-03 15:37:49:608
6.872;-6.9061;0.9888;116655;2021-05-03 15:37:49:658
6.872;-6.9061;0.9888;116705;2021-05-03 15:37:49:708
6.8666;-6.9186;1.0104;116754;2021-05-03 15:37:49:757
6.8414;-6.9468;1.0217;116804;2021-05-03 15:37:49:807
6.8295;-6.9366;1.0265;116854;2021-05-03 15:37:49:857
6.8295;-6.9366;1.0265;116905;2021-05-03 15:37:49:908
6.8163;-6.9575;0.9691;116955;2021-05-03 15:37:49:958
6.848;-6.9228;1.0319;117004;2021-05-03 15:37:50:007
6.848;-6.9228;1.0319;117055;2021-05-03 15:37:50:058
6.851;-6.9258;1.0505;117105;2021-05-03 15:37:50:108
6.8905;-6.9522;1.1181;117154;2021-05-03 15:37:50:157
6.8319;-7.0168;1.0313;117204;2021-05-03 15:37:50:207
6.8319;-7.0168;1.0313;117255;2021-05-03 15:37:50:258
6.784;-6.7744;0.9894;117305;2021-05-03 15:37:50:308
6.9336;-6.9342;1.1265;117354;2021-05-03 15:37:50:357
6.9336;-6.9342;1.1265;117405;2021-05-03 15:37:50:408
6.8875;-6.9085;1.0397;117455;2021-05-03 15:37:50:458
6.8337;-6.8923;1.054;117505;2021-05-03 15:37:50:508
6.8929;-6.8959;1.1055;117555;2021-05-03 15:37:50:558
6.8929;-6.8959;1.1055;117604;2021-05-03 15:37:50:607
