sep=;
ACCELEROMETER X (m/s²);ACCELEROMETER Y (m/s²);ACCELEROMETER Z (m/s²);Time since start in ms ;YYYY-MO-DD HH-MI-SS_SSS
2.1877;-3.9367;-9.3769;1659;2021-05-03 14:50:07:014
2.1877;-3.9367;-9.3769;1708;2021-05-03 14:50:07:063
1.6442;-2.8712;-9.3482;1758;2021-05-03 14:50:07:113
1.6442;-2.8712;-9.3482;1809;2021-05-03 14:50:07:164
1.3258;-2.5983;-9.3194;1858;2021-05-03 14:50:07:213
1.3258;-2.5983;-9.3194;1909;2021-05-03 14:50:07:264
1.4072;-2.493;-9.4679;1958;2021-05-03 14:50:07:313
1.4072;-2.493;-9.4679;2009;2021-05-03 14:50:07:364
1.8405;-2.6318;-9.317;2059;2021-05-03 14:50:07:414
1.8405;-2.6318;-9.317;2109;2021-05-03 14:50:07:464
1.7831;-2.6486;-9.8653;2159;2021-05-03 14:50:07:514
1.7831;-2.6486;-9.8653;2208;2021-05-03 14:50:07:563
1.6107;-2.3469;-9.329;2259;2021-05-03 14:50:07:614
1.6107;-2.3469;-9.329;2309;2021-05-03 14:50:07:664
1.2037;-1.88;-9.6331;2359;2021-05-03 14:50:07:714
1.2037;-1.88;-9.6331;2409;2021-05-03 14:50:07:764
1.3833;-2.4451;-9.5517;2459;2021-05-03 14:50:07:814
1.3833;-2.4451;-9.5517;2508;2021-05-03 14:50:07:863
1.1103;-2.2655;-9.1327;2559;2021-05-03 14:50:07:914
1.1103;-2.2655;-9.1327;2609;2021-05-03 14:50:07:964
1.2516;-2.3637;-10.0497;2658;2021-05-03 14:50:08:013
1.2516;-2.3637;-10.0497;2709;2021-05-03 14:50:08:064
1.23;-2.1147;-9.5708;2759;2021-05-03 14:50:08:114
1.23;-2.1147;-9.5708;2809;2021-05-03 14:50:08:164
1.4216;-2.5001;-9.4966;2859;2021-05-03 14:50:08:214
1.4216;-2.5001;-9.4966;2909;2021-05-03 14:50:08:264
0.9858;-2.1147;-9.4822;2958;2021-05-03 14:50:08:313
0.9858;-2.1147;-9.4822;3008;2021-05-03 14:50:08:363
1.1917;-2.4642;-9.6403;3059;2021-05-03 14:50:08:414
1.1917;-2.4642;-9.6403;3108;2021-05-03 14:50:08:463
1.1941;-1.9351;-9.6474;3159;2021-05-03 14:50:08:514
1.1941;-1.9351;-9.6474;3209;2021-05-03 14:50:08:564
1.2444;-1.9854;-9.341;3259;2021-05-03 14:50:08:614
1.2444;-1.9854;-9.341;3308;2021-05-03 14:50:08:663
0.756;-1.88;-9.6426;3359;2021-05-03 14:50:08:714
0.756;-1.88;-9.6426;3409;2021-05-03 14:50:08:764
0.7727;-2.7156;-9.4439;3459;2021-05-03 14:50:08:814
0.7727;-2.7156;-9.4439;3509;2021-05-03 14:50:08:864
0.9164;-2.4858;-9.5493;3559;2021-05-03 14:50:08:914
0.9164;-2.4858;-9.5493;3608;2021-05-03 14:50:08:963
1.1989;-2.1506;-9.4942;3658;2021-05-03 14:50:09:013
1.1989;-2.1506;-9.4942;3708;2021-05-03 14:50:09:063
1.0983;-1.9926;-9.6714;3758;2021-05-03 14:50:09:113
1.0983;-1.9926;-9.6714;3808;2021-05-03 14:50:09:163
0.9044;-2.1793;-9.9156;3859;2021-05-03 14:50:09:214
0.9044;-2.1793;-9.9156;3909;2021-05-03 14:50:09:264
0.5884;-2.0883;-9.8078;3959;2021-05-03 14:50:09:314
0.5884;-2.0883;-9.8078;4009;2021-05-03 14:50:09:364
1.0074;-2.2631;-9.5708;4059;2021-05-03 14:50:09:414
1.0074;-2.2631;-9.5708;4109;2021-05-03 14:50:09:464
0.8853;-2.1554;-9.5349;4159;2021-05-03 14:50:09:514
0.8853;-2.1554;-9.5349;4210;2021-05-03 14:50:09:565
0.7608;-2.1219;-9.4822;4259;2021-05-03 14:50:09:614
0.7608;-2.1219;-9.4822;4309;2021-05-03 14:50:09:664
0.89;-1.8992;-9.6403;4359;2021-05-03 14:50:09:714
0.89;-1.8992;-9.6403;4409;2021-05-03 14:50:09:764
0.8996;-2.0931;-9.6498;4459;2021-05-03 14:50:09:814
0.8996;-2.0931;-9.6498;4509;2021-05-03 14:50:09:864
0.5333;-2.0644;-9.6091;4559;2021-05-03 14:50:09:914
0.5333;-2.0644;-9.6091;4609;2021-05-03 14:50:09:964
0.9236;-2.4235;-9.8318;4659;2021-05-03 14:50:10:014
0.9236;-2.4235;-9.8318;4709;2021-05-03 14:50:10:064
0.9978;-1.8872;-9.5588;4759;2021-05-03 14:50:10:114
0.9978;-1.8872;-9.5588;4808;2021-05-03 14:50:10:163
0.9738;-2.0812;-9.4391;4858;2021-05-03 14:50:10:213
0.9738;-2.0812;-9.4391;4909;2021-05-03 14:50:10:264
0.7799;-2.1458;-9.657;4959;2021-05-03 14:50:10:314
0.7799;-2.1458;-9.657;5008;2021-05-03 14:50:10:363
1.0672;-2.1889;-9.4894;5059;2021-05-03 14:50:10:414
1.0672;-2.1889;-9.4894;5109;2021-05-03 14:50:10:464
1.4383;-1.9614;-9.396;5159;2021-05-03 14:50:10:514
1.4383;-1.9614;-9.396;5209;2021-05-03 14:50:10:564
0.7799;-1.8489;-9.5996;5259;2021-05-03 14:50:10:614
0.7799;-1.8489;-9.5996;5309;2021-05-03 14:50:10:664
0.981;-1.7555;-9.6043;5358;2021-05-03 14:50:10:713
0.981;-1.7555;-9.6043;5408;2021-05-03 14:50:10:763
0.8158;-1.8992;-9.3984;5458;2021-05-03 14:50:10:813
0.8158;-1.8992;-9.3984;5508;2021-05-03 14:50:10:863
0.9858;-2.2703;-9.6139;5559;2021-05-03 14:50:10:914
0.9858;-2.2703;-9.6139;5608;2021-05-03 14:50:10:963
0.9667;-2.1243;-9.6259;5659;2021-05-03 14:50:11:014
0.9667;-2.1243;-9.6259;5709;2021-05-03 14:50:11:064
0.8733;-2.0692;-9.5062;5758;2021-05-03 14:50:11:113
0.8733;-2.0692;-9.5062;5808;2021-05-03 14:50:11:163
0.9547;-1.9064;-9.5445;5859;2021-05-03 14:50:11:214
0.9547;-1.9064;-9.5445;5909;2021-05-03 14:50:11:264
1.0313;-2.1817;-9.5612;5959;2021-05-03 14:50:11:314
1.0313;-2.1817;-9.5612;6009;2021-05-03 14:50:11:364
0.9475;-2.0668;-9.5732;6059;2021-05-03 14:50:11:414
0.9475;-2.0668;-9.5732;6109;2021-05-03 14:50:11:464
1.0074;-2.2631;-9.5924;6160;2021-05-03 14:50:11:515
1.0074;-2.2631;-9.5924;6209;2021-05-03 14:50:11:564
1.0672;-1.9686;-9.7001;6258;2021-05-03 14:50:11:613
1.0672;-1.9686;-9.7001;6309;2021-05-03 14:50:11:664
1.1319;-1.7508;-9.6379;6358;2021-05-03 14:50:11:713
1.1319;-1.7508;-9.6379;6409;2021-05-03 14:50:11:764
1.0217;-1.9016;-9.5134;6458;2021-05-03 14:50:11:813
1.0217;-1.9016;-9.5134;6509;2021-05-03 14:50:11:864
1.4431;-2.2871;-9.5014;6559;2021-05-03 14:50:11:914
1.4431;-2.2871;-9.5014;6609;2021-05-03 14:50:11:964
1.4048;-2.1147;-9.3553;6659;2021-05-03 14:50:12:014
1.4048;-2.1147;-9.3553;6709;2021-05-03 14:50:12:064
1.1486;-1.722;-9.6187;6759;2021-05-03 14:50:12:114
1.1486;-1.722;-9.6187;6809;2021-05-03 14:50:12:164
1.2707;-2.0309;-9.511;6859;2021-05-03 14:50:12:214
1.2707;-2.0309;-9.511;6908;2021-05-03 14:50:12:263
1.2588;-2.0812;-9.3506;6959;2021-05-03 14:50:12:314
1.2588;-2.0812;-9.3506;7008;2021-05-03 14:50:12:363
1.2827;-2.0859;-9.5014;7059;2021-05-03 14:50:12:414
1.2827;-2.0859;-9.5014;7109;2021-05-03 14:50:12:464
1.2492;-2.0237;-9.5038;7159;2021-05-03 14:50:12:514
1.2492;-2.0237;-9.5038;7209;2021-05-03 14:50:12:564
1.2611;-2.3661;-9.4966;7259;2021-05-03 14:50:12:614
1.2611;-2.3661;-9.4966;7309;2021-05-03 14:50:12:664
1.321;-2.1985;-9.5181;7359;2021-05-03 14:50:12:714
1.321;-2.1985;-9.5181;7408;2021-05-03 14:50:12:763
1.333;-2.1314;-9.5014;7459;2021-05-03 14:50:12:814
1.333;-2.1314;-9.5014;7509;2021-05-03 14:50:12:864
1.2564;-2.2248;-9.4511;7559;2021-05-03 14:50:12:914
1.2564;-2.2248;-9.4511;7609;2021-05-03 14:50:12:964
1.3449;-2.2631;-9.4894;7659;2021-05-03 14:50:13:014
1.3449;-2.2631;-9.4894;7709;2021-05-03 14:50:13:064
1.3282;-2.244;-9.4559;7759;2021-05-03 14:50:13:114
1.3282;-2.244;-9.4559;7808;2021-05-03 14:50:13:163
1.2133;-2.1602;-9.5181;7859;2021-05-03 14:50:13:214
1.2133;-2.1602;-9.5181;7909;2021-05-03 14:50:13:264
1.3402;-2.2176;-9.4679;7959;2021-05-03 14:50:13:314
1.3402;-2.2176;-9.4679;8009;2021-05-03 14:50:13:364
1.3018;-2.1937;-9.4511;8059;2021-05-03 14:50:13:414
1.3018;-2.1937;-9.4511;8109;2021-05-03 14:50:13:464
1.2851;-2.2152;-9.4679;8159;2021-05-03 14:50:13:514
1.2851;-2.2152;-9.4679;8209;2021-05-03 14:50:13:564
1.3162;-2.22;-9.4415;8259;2021-05-03 14:50:13:614
1.3162;-2.22;-9.4415;8309;2021-05-03 14:50:13:664
1.3042;-2.22;-9.5086;8359;2021-05-03 14:50:13:714
1.3042;-2.22;-9.5086;8409;2021-05-03 14:50:13:764
1.2635;-2.1482;-9.5038;8459;2021-05-03 14:50:13:814
1.2635;-2.1482;-9.5038;8509;2021-05-03 14:50:13:864
1.2755;-2.22;-9.4607;8559;2021-05-03 14:50:13:914
1.2755;-2.22;-9.4607;8608;2021-05-03 14:50:13:963
1.3497;-2.2535;-9.4583;8659;2021-05-03 14:50:14:014
1.3497;-2.2535;-9.4583;8709;2021-05-03 14:50:14:064
1.3497;-2.2535;-9.4583;8758;2021-05-03 14:50:14:113
1.2995;-2.1961;-9.4918;8809;2021-05-03 14:50:14:164
1.2851;-2.1721;-9.487;8859;2021-05-03 14:50:14:214
1.2851;-2.1721;-9.487;8909;2021-05-03 14:50:14:264
1.3425;-2.1913;-9.4822;8959;2021-05-03 14:50:14:314
1.3425;-2.1913;-9.4822;9009;2021-05-03 14:50:14:364
1.3234;-2.22;-9.4966;9059;2021-05-03 14:50:14:414
1.3234;-2.22;-9.4966;9109;2021-05-03 14:50:14:464
1.3114;-2.1769;-9.5014;9159;2021-05-03 14:50:14:514
1.3114;-2.1769;-9.5014;9209;2021-05-03 14:50:14:564
1.3282;-2.1985;-9.4487;9259;2021-05-03 14:50:14:614
1.3282;-2.1985;-9.4487;9308;2021-05-03 14:50:14:663
1.2971;-2.2296;-9.4751;9359;2021-05-03 14:50:14:714
1.2971;-2.2296;-9.4751;9409;2021-05-03 14:50:14:764
1.3138;-2.2009;-9.4774;9459;2021-05-03 14:50:14:814
1.3138;-2.2009;-9.4774;9509;2021-05-03 14:50:14:864
1.321;-2.1985;-9.4894;9559;2021-05-03 14:50:14:914
1.321;-2.1985;-9.4894;9609;2021-05-03 14:50:14:964
1.2971;-2.2033;-9.4631;9659;2021-05-03 14:50:15:014
1.2971;-2.2033;-9.4631;9709;2021-05-03 14:50:15:064
1.3186;-2.1913;-9.4774;9758;2021-05-03 14:50:15:113
1.3186;-2.1913;-9.4774;9809;2021-05-03 14:50:15:164
1.3378;-2.1889;-9.4774;9858;2021-05-03 14:50:15:213
1.3378;-2.1889;-9.4774;9908;2021-05-03 14:50:15:263
1.3066;-2.1937;-9.432;9958;2021-05-03 14:50:15:313
1.3066;-2.1937;-9.432;10009;2021-05-03 14:50:15:364
1.2731;-2.2703;-9.4679;10059;2021-05-03 14:50:15:414
1.2731;-2.2703;-9.4679;10109;2021-05-03 14:50:15:464
1.2899;-2.1793;-9.4487;10159;2021-05-03 14:50:15:514
1.2899;-2.1793;-9.4487;10209;2021-05-03 14:50:15:564
1.2779;-2.1554;-9.4607;10259;2021-05-03 14:50:15:614
1.2779;-2.1554;-9.4607;10309;2021-05-03 14:50:15:664
1.3162;-2.1889;-9.4727;10359;2021-05-03 14:50:15:714
1.3162;-2.1889;-9.4727;10408;2021-05-03 14:50:15:763
1.3186;-2.153;-9.6091;10458;2021-05-03 14:50:15:813
1.3186;-2.153;-9.6091;10509;2021-05-03 14:50:15:864
1.2611;-2.0357;-9.4583;10559;2021-05-03 14:50:15:914
1.2611;-2.0357;-9.4583;10609;2021-05-03 14:50:15:964
1.3833;-2.3517;-9.4391;10659;2021-05-03 14:50:16:014
1.3833;-2.3517;-9.4391;10709;2021-05-03 14:50:16:064
1.4575;-2.2775;-9.4966;10758;2021-05-03 14:50:16:113
1.4575;-2.2775;-9.4966;10809;2021-05-03 14:50:16:164
1.2276;-2.0093;-9.4774;10859;2021-05-03 14:50:16:214
1.2276;-2.0093;-9.4774;10909;2021-05-03 14:50:16:264
1.3833;-2.232;-9.5469;10959;2021-05-03 14:50:16:314
1.3833;-2.232;-9.5469;11009;2021-05-03 14:50:16:364
1.3402;-2.1937;-9.4248;11059;2021-05-03 14:50:16:414
1.3402;-2.1937;-9.4248;11108;2021-05-03 14:50:16:463
1.1941;-2.1243;-9.5373;11159;2021-05-03 14:50:16:514
1.1941;-2.1243;-9.5373;11208;2021-05-03 14:50:16:563
1.3737;-2.3469;-9.487;11259;2021-05-03 14:50:16:614
1.3737;-2.3469;-9.487;11309;2021-05-03 14:50:16:664
1.388;-2.3996;-9.4631;11359;2021-05-03 14:50:16:714
1.388;-2.3996;-9.4631;11409;2021-05-03 14:50:16:764
1.6514;-2.4116;-9.341;11459;2021-05-03 14:50:16:814
1.6514;-2.4116;-9.341;11509;2021-05-03 14:50:16:864
1.4718;-2.3685;-9.4607;11559;2021-05-03 14:50:16:914
1.4718;-2.3685;-9.4607;11609;2021-05-03 14:50:16:964
1.3641;-2.2511;-9.4679;11659;2021-05-03 14:50:17:014
1.3641;-2.2511;-9.4679;11709;2021-05-03 14:50:17:064
1.4742;-2.2607;-9.4248;11759;2021-05-03 14:50:17:114
1.4742;-2.2607;-9.4248;11809;2021-05-03 14:50:17:164
1.5461;-2.0548;-9.3984;11859;2021-05-03 14:50:17:214
1.5461;-2.0548;-9.3984;11909;2021-05-03 14:50:17:264
1.0672;-1.9303;-9.408;11959;2021-05-03 14:50:17:314
1.0672;-1.9303;-9.408;12009;2021-05-03 14:50:17:364
1.3042;-2.3349;-9.2739;12059;2021-05-03 14:50:17:414
1.3042;-2.3349;-9.2739;12109;2021-05-03 14:50:17:464
1.2013;-2.5528;-9.1303;12159;2021-05-03 14:50:17:514
1.2013;-2.5528;-9.1303;12208;2021-05-03 14:50:17:563
1.5556;-2.6246;-9.4679;12258;2021-05-03 14:50:17:613
1.5556;-2.6246;-9.4679;12308;2021-05-03 14:50:17:663
1.3042;-2.3182;-9.4224;12358;2021-05-03 14:50:17:713
1.3042;-2.3182;-9.4224;12408;2021-05-03 14:50:17:763
1.2803;-2.323;-9.329;12458;2021-05-03 14:50:17:813
1.2803;-2.323;-9.329;12509;2021-05-03 14:50:17:864
1.2516;-2.5792;-9.4655;12559;2021-05-03 14:50:17:914
1.2516;-2.5792;-9.4655;12608;2021-05-03 14:50:17:963
1.1917;-2.4978;-9.4918;12658;2021-05-03 14:50:18:013
1.1917;-2.4978;-9.4918;12709;2021-05-03 14:50:18:064
1.1558;-2.4475;-9.408;12759;2021-05-03 14:50:18:114
1.1558;-2.4475;-9.408;12809;2021-05-03 14:50:18:164
1.2827;-2.3493;-9.4535;12859;2021-05-03 14:50:18:214
1.2827;-2.3493;-9.4535;12909;2021-05-03 14:50:18:264
1.0792;-2.3493;-9.4583;12959;2021-05-03 14:50:18:314
1.0792;-2.3493;-9.4583;13008;2021-05-03 14:50:18:363
1.2348;-2.3254;-9.4511;13059;2021-05-03 14:50:18:414
1.2348;-2.3254;-9.4511;13109;2021-05-03 14:50:18:464
1.2468;-2.4858;-9.3266;13159;2021-05-03 14:50:18:514
1.2468;-2.4858;-9.3266;13209;2021-05-03 14:50:18:564
1.2635;-2.5528;-9.3769;13259;2021-05-03 14:50:18:614
1.2635;-2.5528;-9.3769;13309;2021-05-03 14:50:18:664
1.1917;-2.4355;-9.5612;13359;2021-05-03 14:50:18:714
1.1917;-2.4355;-9.5612;13409;2021-05-03 14:50:18:764
0.9978;-2.3733;-9.5014;13459;2021-05-03 14:50:18:814
0.9978;-2.3733;-9.5014;13508;2021-05-03 14:50:18:863
1.1821;-2.3541;-9.5205;13559;2021-05-03 14:50:18:914
1.1821;-2.3541;-9.5205;13609;2021-05-03 14:50:18:964
1.1845;-2.4618;-9.408;13659;2021-05-03 14:50:19:014
1.1845;-2.4618;-9.408;13708;2021-05-03 14:50:19:063
1.2061;-2.2248;-9.4152;13759;2021-05-03 14:50:19:114
1.2061;-2.2248;-9.4152;13808;2021-05-03 14:50:19:163
1.1582;-2.402;-9.4822;13859;2021-05-03 14:50:19:214
1.1582;-2.402;-9.4822;13909;2021-05-03 14:50:19:264
1.0983;-2.1841;-9.4607;13959;2021-05-03 14:50:19:314
1.0983;-2.1841;-9.4607;14008;2021-05-03 14:50:19:363
1.1295;-2.2918;-9.3769;14059;2021-05-03 14:50:19:414
1.1295;-2.2918;-9.3769;14108;2021-05-03 14:50:19:463
1.3018;-1.9543;-9.3649;14159;2021-05-03 14:50:19:514
1.3018;-1.9543;-9.3649;14208;2021-05-03 14:50:19:563
1.2276;-1.9016;-9.4152;14258;2021-05-03 14:50:19:613
1.2276;-1.9016;-9.4152;14309;2021-05-03 14:50:19:664
1.2683;-2.1434;-9.645;14359;2021-05-03 14:50:19:714
1.2683;-2.1434;-9.645;14408;2021-05-03 14:50:19:763
0.7895;-2.3038;-9.4511;14458;2021-05-03 14:50:19:813
0.7895;-2.3038;-9.4511;14509;2021-05-03 14:50:19:864
1.2181;-1.9567;-9.6019;14559;2021-05-03 14:50:19:914
1.2181;-1.9567;-9.6019;14609;2021-05-03 14:50:19:964
1.1127;-2.0572;-9.4535;14659;2021-05-03 14:50:20:014
1.1127;-2.0572;-9.4535;14709;2021-05-03 14:50:20:064
1.1127;-2.0572;-9.4535;14759;2021-05-03 14:50:20:114
1.1343;-2.3158;-9.5684;14809;2021-05-03 14:50:20:164
1.1917;-2.1674;-9.5612;14858;2021-05-03 14:50:20:213
1.1917;-2.1674;-9.5612;14909;2021-05-03 14:50:20:264
1.0864;-2.2368;-9.4535;14959;2021-05-03 14:50:20:314
1.0864;-2.2368;-9.4535;15009;2021-05-03 14:50:20:364
1.1941;-2.2559;-9.4822;15059;2021-05-03 14:50:20:414
1.1941;-2.2559;-9.4822;15109;2021-05-03 14:50:20:464
1.0936;-2.2176;-9.5445;15159;2021-05-03 14:50:20:514
1.0936;-2.2176;-9.5445;15209;2021-05-03 14:50:20:564
1.1462;-2.1506;-9.4607;15259;2021-05-03 14:50:20:614
1.1462;-2.1506;-9.4607;15309;2021-05-03 14:50:20:664
1.2109;-2.1793;-9.4296;15358;2021-05-03 14:50:20:713
1.2109;-2.1793;-9.4296;15408;2021-05-03 14:50:20:763
1.0864;-2.3373;-9.4727;15459;2021-05-03 14:50:20:814
1.0864;-2.3373;-9.4727;15509;2021-05-03 14:50:20:864
1.1103;-2.2057;-9.6067;15559;2021-05-03 14:50:20:914
1.1103;-2.2057;-9.6067;15609;2021-05-03 14:50:20:964
1.1366;-2.1578;-9.5373;15659;2021-05-03 14:50:21:014
1.1366;-2.1578;-9.5373;15709;2021-05-03 14:50:21:064
1.1773;-2.2488;-9.4846;15759;2021-05-03 14:50:21:114
1.1773;-2.2488;-9.4846;15809;2021-05-03 14:50:21:164
1.163;-2.3421;-9.408;15859;2021-05-03 14:50:21:214
1.163;-2.3421;-9.408;15909;2021-05-03 14:50:21:264
1.1127;-2.299;-9.4391;15959;2021-05-03 14:50:21:314
1.1127;-2.299;-9.4391;16009;2021-05-03 14:50:21:364
1.1223;-2.1362;-9.4439;16059;2021-05-03 14:50:21:414
1.1223;-2.1362;-9.4439;16109;2021-05-03 14:50:21:464
1.1055;-2.2679;-9.408;16159;2021-05-03 14:50:21:514
1.1055;-2.2679;-9.408;16209;2021-05-03 14:50:21:564
1.151;-2.2081;-9.5277;16258;2021-05-03 14:50:21:613
1.151;-2.2081;-9.5277;16309;2021-05-03 14:50:21:664
1.1869;-2.2488;-9.5493;16359;2021-05-03 14:50:21:714
1.1869;-2.2488;-9.5493;16408;2021-05-03 14:50:21:763
1.1199;-2.2847;-9.5062;16459;2021-05-03 14:50:21:814
1.1199;-2.2847;-9.5062;16509;2021-05-03 14:50:21:864
1.1079;-2.1769;-9.5301;16559;2021-05-03 14:50:21:914
1.1079;-2.1769;-9.5301;16609;2021-05-03 14:50:21:964
1.1558;-2.2775;-9.4655;16659;2021-05-03 14:50:22:014
1.1558;-2.2775;-9.4655;16709;2021-05-03 14:50:22:064
1.1438;-2.2847;-9.5301;16759;2021-05-03 14:50:22:114
1.1438;-2.2847;-9.5301;16809;2021-05-03 14:50:22:164
1.0936;-2.3134;-9.5325;16859;2021-05-03 14:50:22:214
1.0936;-2.3134;-9.5325;16909;2021-05-03 14:50:22:264
1.2588;-2.2535;-9.5325;16959;2021-05-03 14:50:22:314
1.2588;-2.2535;-9.5325;17009;2021-05-03 14:50:22:364
1.1462;-2.2942;-9.5038;17058;2021-05-03 14:50:22:413
1.1462;-2.2942;-9.5038;17108;2021-05-03 14:50:22:463
1.1199;-2.244;-9.5397;17159;2021-05-03 14:50:22:514
1.1199;-2.244;-9.5397;17209;2021-05-03 14:50:22:564
1.1606;-2.2559;-9.4367;17259;2021-05-03 14:50:22:614
1.1606;-2.2559;-9.4367;17308;2021-05-03 14:50:22:663
1.1438;-2.2535;-9.499;17358;2021-05-03 14:50:22:713
1.1438;-2.2535;-9.499;17408;2021-05-03 14:50:22:763
1.2276;-2.2224;-9.4559;17459;2021-05-03 14:50:22:814
1.2276;-2.2224;-9.4559;17509;2021-05-03 14:50:22:864
1.072;-2.2775;-9.4966;17559;2021-05-03 14:50:22:914
1.072;-2.2775;-9.4966;17609;2021-05-03 14:50:22:964
1.0959;-2.165;-9.4607;17659;2021-05-03 14:50:23:014
1.0959;-2.165;-9.4607;17709;2021-05-03 14:50:23:064
1.1199;-2.1913;-9.5181;17759;2021-05-03 14:50:23:114
1.1199;-2.1913;-9.5181;17809;2021-05-03 14:50:23:164
1.2611;-2.22;-9.5014;17859;2021-05-03 14:50:23:214
1.2611;-2.22;-9.5014;17909;2021-05-03 14:50:23:264
1.1438;-2.2823;-9.5325;17959;2021-05-03 14:50:23:314
1.1438;-2.2823;-9.5325;18008;2021-05-03 14:50:23:363
1.1438;-1.9686;-9.5062;18059;2021-05-03 14:50:23:414
1.1438;-1.9686;-9.5062;18109;2021-05-03 14:50:23:464
1.4647;-2.4666;-9.3649;18158;2021-05-03 14:50:23:513
1.4647;-2.4666;-9.3649;18209;2021-05-03 14:50:23:564
1.2133;-2.4355;-9.5708;18259;2021-05-03 14:50:23:614
1.2133;-2.4355;-9.5708;18309;2021-05-03 14:50:23:664
1.3545;-2.1434;-9.432;18359;2021-05-03 14:50:23:714
1.3545;-2.1434;-9.432;18409;2021-05-03 14:50:23:764
1.1462;-2.2368;-9.4607;18459;2021-05-03 14:50:23:814
1.1462;-2.2368;-9.4607;18509;2021-05-03 14:50:23:864
1.151;-2.1458;-9.5229;18558;2021-05-03 14:50:23:913
1.151;-2.1458;-9.5229;18609;2021-05-03 14:50:23:964
1.3162;-1.9591;-9.5948;18659;2021-05-03 14:50:24:014
1.3162;-1.9591;-9.5948;18709;2021-05-03 14:50:24:064
1.4886;-1.8202;-9.4655;18758;2021-05-03 14:50:24:113
1.4886;-1.8202;-9.4655;18808;2021-05-03 14:50:24:163
1.4287;-2.0668;-9.4966;18858;2021-05-03 14:50:24:213
1.4287;-2.0668;-9.4966;18908;2021-05-03 14:50:24:263
1.2061;-2.0596;-9.4631;18958;2021-05-03 14:50:24:313
1.2061;-2.0596;-9.4631;19009;2021-05-03 14:50:24:364
1.163;-2.2895;-9.4822;19059;2021-05-03 14:50:24:414
1.163;-2.2895;-9.4822;19109;2021-05-03 14:50:24:464
1.2444;-2.1554;-9.3434;19159;2021-05-03 14:50:24:514
1.2444;-2.1554;-9.3434;19209;2021-05-03 14:50:24:564
1.4263;-2.2799;-9.3841;19259;2021-05-03 14:50:24:614
1.4263;-2.2799;-9.3841;19309;2021-05-03 14:50:24:664
1.4958;-2.1362;-9.329;19359;2021-05-03 14:50:24:714
1.4958;-2.1362;-9.329;19409;2021-05-03 14:50:24:764
1.2731;-2.5887;-9.4918;19458;2021-05-03 14:50:24:813
1.2731;-2.5887;-9.4918;19508;2021-05-03 14:50:24:863
1.3976;-2.05;-9.4918;19559;2021-05-03 14:50:24:914
1.3976;-2.05;-9.4918;19608;2021-05-03 14:50:24:963
1.3425;-2.0165;-9.4344;19659;2021-05-03 14:50:25:014
1.3425;-2.0165;-9.4344;19709;2021-05-03 14:50:25:064
1.4335;-2.6031;-9.2285;19759;2021-05-03 14:50:25:114
1.4335;-2.6031;-9.2285;19809;2021-05-03 14:50:25:164
1.3186;-2.6582;-9.4511;19858;2021-05-03 14:50:25:213
1.3186;-2.6582;-9.4511;19909;2021-05-03 14:50:25:264
1.4766;-2.244;-9.3314;19958;2021-05-03 14:50:25:313
1.4766;-2.244;-9.3314;20009;2021-05-03 14:50:25:364
1.4862;-2.3326;-9.4679;20059;2021-05-03 14:50:25:414
1.4862;-2.3326;-9.4679;20108;2021-05-03 14:50:25:463
1.4335;-2.3733;-9.4367;20158;2021-05-03 14:50:25:513
1.4335;-2.3733;-9.4367;20209;2021-05-03 14:50:25:564
1.4383;-2.2823;-9.3865;20259;2021-05-03 14:50:25:614
1.4383;-2.2823;-9.3865;20309;2021-05-03 14:50:25:664
1.4958;-2.2272;-9.4152;20359;2021-05-03 14:50:25:714
1.4958;-2.2272;-9.4152;20409;2021-05-03 14:50:25:764
1.4048;-2.4044;-9.3984;20459;2021-05-03 14:50:25:814
1.4048;-2.4044;-9.3984;20509;2021-05-03 14:50:25:864
1.4048;-2.4044;-9.3984;20559;2021-05-03 14:50:25:914
1.4263;-2.2727;-9.4224;20609;2021-05-03 14:50:25:964
1.5389;-2.3038;-9.4487;20659;2021-05-03 14:50:26:014
1.5389;-2.3038;-9.4487;20708;2021-05-03 14:50:26:063
1.5389;-2.3038;-9.4487;20758;2021-05-03 14:50:26:113
1.3354;-2.1937;-9.329;20809;2021-05-03 14:50:26:164
1.3809;-2.2224;-9.4367;20859;2021-05-03 14:50:26:214
1.3809;-2.2224;-9.4367;20909;2021-05-03 14:50:26:264
1.4144;-2.3373;-9.4463;20959;2021-05-03 14:50:26:314
1.4144;-2.3373;-9.4463;21009;2021-05-03 14:50:26:364
1.5389;-2.2966;-9.42;21059;2021-05-03 14:50:26:414
1.5389;-2.2966;-9.42;21109;2021-05-03 14:50:26:464
1.5269;-2.4451;-9.3673;21159;2021-05-03 14:50:26:514
1.5269;-2.4451;-9.3673;21209;2021-05-03 14:50:26:564
1.4431;-2.2847;-9.4008;21260;2021-05-03 14:50:26:615
1.4431;-2.2847;-9.4008;21309;2021-05-03 14:50:26:664
1.4694;-2.3158;-9.3482;21359;2021-05-03 14:50:26:714
1.4694;-2.3158;-9.3482;21409;2021-05-03 14:50:26:764
1.4455;-2.3493;-9.4535;21459;2021-05-03 14:50:26:814
1.4455;-2.3493;-9.4535;21508;2021-05-03 14:50:26:863
1.4623;-2.311;-9.4104;21559;2021-05-03 14:50:26:914
1.4623;-2.311;-9.4104;21608;2021-05-03 14:50:26:963
1.4742;-2.2535;-9.4056;21658;2021-05-03 14:50:27:013
1.4742;-2.2535;-9.4056;21709;2021-05-03 14:50:27:064
1.3689;-2.3637;-9.4224;21759;2021-05-03 14:50:27:114
1.3689;-2.3637;-9.4224;21809;2021-05-03 14:50:27:164
1.4383;-2.2679;-9.396;21859;2021-05-03 14:50:27:214
1.4383;-2.2679;-9.396;21909;2021-05-03 14:50:27:264
1.5149;-2.2966;-9.432;21959;2021-05-03 14:50:27:314
1.5149;-2.2966;-9.432;22009;2021-05-03 14:50:27:364
1.412;-2.3086;-9.4439;22058;2021-05-03 14:50:27:413
1.412;-2.3086;-9.4439;22108;2021-05-03 14:50:27:463
1.388;-2.323;-9.4511;22158;2021-05-03 14:50:27:513
1.388;-2.323;-9.4511;22209;2021-05-03 14:50:27:564
1.4814;-2.3134;-9.4583;22258;2021-05-03 14:50:27:613
1.4814;-2.3134;-9.4583;22309;2021-05-03 14:50:27:664
1.3928;-2.3014;-9.4128;22359;2021-05-03 14:50:27:714
1.3928;-2.3014;-9.4128;22409;2021-05-03 14:50:27:764
1.4407;-2.299;-9.4415;22459;2021-05-03 14:50:27:814
1.4407;-2.299;-9.4415;22509;2021-05-03 14:50:27:864
1.4886;-2.3278;-9.3889;22559;2021-05-03 14:50:27:914
1.4886;-2.3278;-9.3889;22609;2021-05-03 14:50:27:964
1.4311;-2.2895;-9.4176;22659;2021-05-03 14:50:28:014
1.4311;-2.2895;-9.4176;22709;2021-05-03 14:50:28:064
1.3904;-2.2942;-9.4104;22759;2021-05-03 14:50:28:114
1.3904;-2.2942;-9.4104;22809;2021-05-03 14:50:28:164
1.4623;-2.2631;-9.3338;22858;2021-05-03 14:50:28:213
1.4623;-2.2631;-9.3338;22908;2021-05-03 14:50:28:263
1.3186;-2.2607;-9.4367;22958;2021-05-03 14:50:28:313
1.3186;-2.2607;-9.4367;23009;2021-05-03 14:50:28:364
1.3569;-2.3182;-9.4272;23058;2021-05-03 14:50:28:413
1.3569;-2.3182;-9.4272;23109;2021-05-03 14:50:28:464
1.4287;-2.3038;-9.4104;23158;2021-05-03 14:50:28:513
1.4287;-2.3038;-9.4104;23209;2021-05-03 14:50:28:564
1.4;-2.2918;-9.4439;23259;2021-05-03 14:50:28:614
1.4;-2.2918;-9.4439;23309;2021-05-03 14:50:28:664
1.3809;-2.3517;-9.4344;23359;2021-05-03 14:50:28:714
1.3809;-2.3517;-9.4344;23409;2021-05-03 14:50:28:764
1.3976;-2.2559;-9.4798;23459;2021-05-03 14:50:28:814
1.3976;-2.2559;-9.4798;23509;2021-05-03 14:50:28:864
1.4096;-2.299;-9.3936;23559;2021-05-03 14:50:28:914
1.4096;-2.299;-9.3936;23609;2021-05-03 14:50:28:964
1.4;-2.3397;-9.4559;23659;2021-05-03 14:50:29:014
1.4;-2.3397;-9.4559;23709;2021-05-03 14:50:29:064
1.3976;-2.2895;-9.4104;23759;2021-05-03 14:50:29:114
1.3976;-2.2895;-9.4104;23809;2021-05-03 14:50:29:164
1.3809;-2.2871;-9.4296;23859;2021-05-03 14:50:29:214
1.3809;-2.2871;-9.4296;23909;2021-05-03 14:50:29:264
1.3976;-2.3134;-9.3913;23959;2021-05-03 14:50:29:314
1.3976;-2.3134;-9.3913;24009;2021-05-03 14:50:29:364
1.3665;-2.3326;-9.4128;24059;2021-05-03 14:50:29:414
1.3665;-2.3326;-9.4128;24108;2021-05-03 14:50:29:463
1.3904;-2.2966;-9.4727;24159;2021-05-03 14:50:29:514
1.3904;-2.2966;-9.4727;24209;2021-05-03 14:50:29:564
1.388;-2.3062;-9.3936;24259;2021-05-03 14:50:29:614
1.388;-2.3062;-9.3936;24309;2021-05-03 14:50:29:664
1.3928;-2.3326;-9.4487;24359;2021-05-03 14:50:29:714
1.3928;-2.3326;-9.4487;24409;2021-05-03 14:50:29:764
1.3761;-2.2655;-9.4056;24459;2021-05-03 14:50:29:814
1.3761;-2.2655;-9.4056;24509;2021-05-03 14:50:29:864
1.4072;-2.3445;-9.4008;24559;2021-05-03 14:50:29:914
1.4072;-2.3445;-9.4008;24609;2021-05-03 14:50:29:964
1.3976;-2.3278;-9.4367;24659;2021-05-03 14:50:30:014
1.3976;-2.3278;-9.4367;24709;2021-05-03 14:50:30:064
1.3833;-2.2392;-9.3793;24759;2021-05-03 14:50:30:114
1.3833;-2.2392;-9.3793;24809;2021-05-03 14:50:30:164
1.3713;-2.3733;-9.3841;24859;2021-05-03 14:50:30:214
1.3713;-2.3733;-9.3841;24909;2021-05-03 14:50:30:264
1.3282;-2.2535;-9.4415;24959;2021-05-03 14:50:30:314
1.3282;-2.2535;-9.4415;25008;2021-05-03 14:50:30:363
1.4311;-2.3685;-9.4224;25059;2021-05-03 14:50:30:414
1.4311;-2.3685;-9.4224;25109;2021-05-03 14:50:30:464
1.4024;-2.2847;-9.4607;25158;2021-05-03 14:50:30:513
1.4024;-2.2847;-9.4607;25209;2021-05-03 14:50:30:564
1.3761;-2.3589;-9.432;25259;2021-05-03 14:50:30:614
1.3761;-2.3589;-9.432;25309;2021-05-03 14:50:30:664
1.4216;-2.3062;-9.4296;25359;2021-05-03 14:50:30:714
1.4216;-2.3062;-9.4296;25409;2021-05-03 14:50:30:764
1.3928;-2.2607;-9.4679;25459;2021-05-03 14:50:30:814
1.3928;-2.2607;-9.4679;25508;2021-05-03 14:50:30:863
1.3258;-2.299;-9.4439;25559;2021-05-03 14:50:30:914
1.3258;-2.299;-9.4439;25609;2021-05-03 14:50:30:964
1.4048;-2.3302;-9.4655;25659;2021-05-03 14:50:31:014
1.4048;-2.3302;-9.4655;25709;2021-05-03 14:50:31:064
1.4216;-2.2895;-9.2476;25759;2021-05-03 14:50:31:114
1.4216;-2.2895;-9.2476;25809;2021-05-03 14:50:31:164
1.5197;-2.2799;-9.3721;25859;2021-05-03 14:50:31:214
1.5197;-2.2799;-9.3721;25909;2021-05-03 14:50:31:264
1.3449;-2.3709;-9.4272;25959;2021-05-03 14:50:31:314
1.3449;-2.3709;-9.4272;26009;2021-05-03 14:50:31:364
1.3665;-2.2655;-9.4511;26059;2021-05-03 14:50:31:414
1.3665;-2.2655;-9.4511;26109;2021-05-03 14:50:31:464
1.5485;-2.2799;-9.42;26158;2021-05-03 14:50:31:513
1.5485;-2.2799;-9.42;26209;2021-05-03 14:50:31:564
1.3641;-2.3158;-9.499;26259;2021-05-03 14:50:31:614
1.3641;-2.3158;-9.499;26309;2021-05-03 14:50:31:664
1.4287;-2.3158;-9.4463;26359;2021-05-03 14:50:31:714
1.4287;-2.3158;-9.4463;26409;2021-05-03 14:50:31:764
1.412;-2.2775;-9.4128;26459;2021-05-03 14:50:31:814
1.412;-2.2775;-9.4128;26509;2021-05-03 14:50:31:864
1.412;-2.2775;-9.4128;26559;2021-05-03 14:50:31:914
1.4263;-2.311;-9.4439;26608;2021-05-03 14:50:31:963
1.4263;-2.311;-9.4439;26659;2021-05-03 14:50:32:014
1.4814;-2.2559;-9.408;26708;2021-05-03 14:50:32:063
1.4814;-2.2559;-9.408;26758;2021-05-03 14:50:32:113
1.3833;-2.2679;-9.4367;26809;2021-05-03 14:50:32:164
1.3545;-2.3014;-9.5014;26859;2021-05-03 14:50:32:214
1.3545;-2.3014;-9.5014;26909;2021-05-03 14:50:32:264
1.4359;-2.3397;-9.4344;26959;2021-05-03 14:50:32:314
1.4359;-2.3397;-9.4344;27009;2021-05-03 14:50:32:364
1.4359;-2.2583;-9.4008;27058;2021-05-03 14:50:32:413
1.4359;-2.2583;-9.4008;27108;2021-05-03 14:50:32:463
1.3904;-2.1123;-9.2548;27159;2021-05-03 14:50:32:514
1.3904;-2.1123;-9.2548;27209;2021-05-03 14:50:32:564
1.4814;-2.3828;-9.408;27259;2021-05-03 14:50:32:614
1.4814;-2.3828;-9.408;27309;2021-05-03 14:50:32:664
1.4551;-2.2942;-9.3913;27359;2021-05-03 14:50:32:714
1.4551;-2.2942;-9.3913;27409;2021-05-03 14:50:32:764
1.4575;-2.2152;-9.3841;27459;2021-05-03 14:50:32:814
1.4575;-2.2152;-9.3841;27509;2021-05-03 14:50:32:864
1.3976;-2.3589;-9.3936;27559;2021-05-03 14:50:32:914
1.3976;-2.3589;-9.3936;27609;2021-05-03 14:50:32:964
1.4359;-2.3278;-9.396;27658;2021-05-03 14:50:33:013
1.4359;-2.3278;-9.396;27708;2021-05-03 14:50:33:063
1.4383;-2.311;-9.4631;27758;2021-05-03 14:50:33:113
1.4383;-2.311;-9.4631;27809;2021-05-03 14:50:33:164
1.4838;-2.2847;-9.4152;27859;2021-05-03 14:50:33:214
1.4838;-2.2847;-9.4152;27909;2021-05-03 14:50:33:264
1.4575;-2.299;-9.4272;27959;2021-05-03 14:50:33:314
1.4575;-2.299;-9.4272;28009;2021-05-03 14:50:33:364
1.4766;-2.2966;-9.4415;28059;2021-05-03 14:50:33:414
1.4766;-2.2966;-9.4415;28109;2021-05-03 14:50:33:464
1.4216;-2.2727;-9.4559;28159;2021-05-03 14:50:33:514
1.4216;-2.2727;-9.4559;28208;2021-05-03 14:50:33:563
1.4096;-2.2607;-9.3266;28259;2021-05-03 14:50:33:614
1.4096;-2.2607;-9.3266;28309;2021-05-03 14:50:33:664
1.467;-2.3302;-9.4655;28359;2021-05-03 14:50:33:714
1.467;-2.3302;-9.4655;28409;2021-05-03 14:50:33:764
1.4407;-2.2751;-9.3984;28459;2021-05-03 14:50:33:814
1.4407;-2.2751;-9.3984;28509;2021-05-03 14:50:33:864
1.4647;-2.2128;-9.4391;28558;2021-05-03 14:50:33:913
1.4647;-2.2128;-9.4391;28608;2021-05-03 14:50:33:963
1.4311;-2.2775;-9.3362;28659;2021-05-03 14:50:34:014
1.4311;-2.2775;-9.3362;28709;2021-05-03 14:50:34:064
1.2899;-2.3182;-9.4008;28759;2021-05-03 14:50:34:114
1.2899;-2.3182;-9.4008;28809;2021-05-03 14:50:34:164
1.4263;-2.244;-9.4487;28859;2021-05-03 14:50:34:214
1.4263;-2.244;-9.4487;28909;2021-05-03 14:50:34:264
1.5245;-2.3206;-9.4344;28959;2021-05-03 14:50:34:314
1.5245;-2.3206;-9.4344;29009;2021-05-03 14:50:34:364
1.3545;-2.3182;-9.4607;29058;2021-05-03 14:50:34:413
1.3545;-2.3182;-9.4607;29109;2021-05-03 14:50:34:464
1.3497;-2.2871;-9.499;29159;2021-05-03 14:50:34:514
1.3497;-2.2871;-9.499;29209;2021-05-03 14:50:34:564
1.4048;-2.244;-9.3673;29258;2021-05-03 14:50:34:613
1.4048;-2.244;-9.3673;29309;2021-05-03 14:50:34:664
1.4096;-2.3254;-9.4535;29359;2021-05-03 14:50:34:714
1.4096;-2.3254;-9.4535;29408;2021-05-03 14:50:34:763
1.3856;-2.2703;-9.432;29459;2021-05-03 14:50:34:814
1.3856;-2.2703;-9.432;29509;2021-05-03 14:50:34:864
1.4024;-2.2416;-9.4248;29558;2021-05-03 14:50:34:913
1.4024;-2.2416;-9.4248;29608;2021-05-03 14:50:34:963
1.3976;-2.2847;-9.4224;29659;2021-05-03 14:50:35:014
1.3976;-2.2847;-9.4224;29708;2021-05-03 14:50:35:063
1.4263;-2.2727;-9.4296;29758;2021-05-03 14:50:35:113
1.4263;-2.2727;-9.4296;29809;2021-05-03 14:50:35:164
1.4;-2.2679;-9.408;29859;2021-05-03 14:50:35:214
1.4;-2.2679;-9.408;29909;2021-05-03 14:50:35:264
1.3593;-2.2703;-9.4296;29959;2021-05-03 14:50:35:314
1.3593;-2.2703;-9.4296;30008;2021-05-03 14:50:35:363
1.3785;-2.3038;-9.4583;30059;2021-05-03 14:50:35:414
1.3785;-2.3038;-9.4583;30109;2021-05-03 14:50:35:464
1.3928;-2.2631;-9.408;30159;2021-05-03 14:50:35:514
1.3928;-2.2631;-9.408;30208;2021-05-03 14:50:35:563
1.3402;-2.3206;-9.4487;30259;2021-05-03 14:50:35:614
1.3402;-2.3206;-9.4487;30309;2021-05-03 14:50:35:664
1.4024;-2.2464;-9.4391;30359;2021-05-03 14:50:35:714
1.4024;-2.2464;-9.4391;30409;2021-05-03 14:50:35:764
1.4216;-2.2631;-9.3936;30459;2021-05-03 14:50:35:814
1.4216;-2.2631;-9.3936;30508;2021-05-03 14:50:35:863
1.3497;-2.2751;-9.4655;30558;2021-05-03 14:50:35:913
1.3497;-2.2751;-9.4655;30609;2021-05-03 14:50:35:964
1.424;-2.2871;-9.4727;30658;2021-05-03 14:50:36:013
1.424;-2.2871;-9.4727;30709;2021-05-03 14:50:36:064
1.4144;-2.3014;-9.4344;30759;2021-05-03 14:50:36:114
1.4144;-2.3014;-9.4344;30809;2021-05-03 14:50:36:164
1.4311;-2.2655;-9.4774;30859;2021-05-03 14:50:36:214
1.4311;-2.2655;-9.4774;30909;2021-05-03 14:50:36:264
1.3354;-2.2823;-9.4487;30958;2021-05-03 14:50:36:313
1.3354;-2.2823;-9.4487;31009;2021-05-03 14:50:36:364
1.4383;-2.378;-9.4535;31058;2021-05-03 14:50:36:413
1.4383;-2.378;-9.4535;31109;2021-05-03 14:50:36:464
1.3856;-2.2081;-9.4846;31159;2021-05-03 14:50:36:514
1.3856;-2.2081;-9.4846;31209;2021-05-03 14:50:36:564
1.3761;-2.311;-9.42;31259;2021-05-03 14:50:36:614
1.3761;-2.311;-9.42;31309;2021-05-03 14:50:36:664
1.4623;-2.3086;-9.3697;31358;2021-05-03 14:50:36:713
1.4623;-2.3086;-9.3697;31409;2021-05-03 14:50:36:764
1.4383;-2.2871;-9.4152;31459;2021-05-03 14:50:36:814
1.4383;-2.2871;-9.4152;31509;2021-05-03 14:50:36:864
1.3689;-2.3948;-9.4774;31559;2021-05-03 14:50:36:914
1.3689;-2.3948;-9.4774;31608;2021-05-03 14:50:36:963
1.3593;-2.1937;-9.4487;31658;2021-05-03 14:50:37:013
1.3593;-2.1937;-9.4487;31709;2021-05-03 14:50:37:064
1.4359;-2.2416;-9.3865;31759;2021-05-03 14:50:37:114
1.4359;-2.2416;-9.3865;31809;2021-05-03 14:50:37:164
1.3617;-2.3421;-9.3817;31859;2021-05-03 14:50:37:214
1.3617;-2.3421;-9.3817;31908;2021-05-03 14:50:37:263
1.3306;-2.3589;-9.432;31959;2021-05-03 14:50:37:314
1.3306;-2.3589;-9.432;32009;2021-05-03 14:50:37:364
1.4982;-2.2416;-9.4415;32059;2021-05-03 14:50:37:414
1.4982;-2.2416;-9.4415;32108;2021-05-03 14:50:37:463
1.3737;-2.3206;-9.4272;32159;2021-05-03 14:50:37:514
1.3737;-2.3206;-9.4272;32209;2021-05-03 14:50:37:564
1.3497;-2.3278;-9.4152;32259;2021-05-03 14:50:37:614
1.3497;-2.3278;-9.4152;32309;2021-05-03 14:50:37:664
1.4287;-2.2871;-9.4296;32359;2021-05-03 14:50:37:714
1.4287;-2.2871;-9.4296;32408;2021-05-03 14:50:37:763
1.3952;-2.2823;-9.4152;32458;2021-05-03 14:50:37:813
1.3952;-2.2823;-9.4152;32509;2021-05-03 14:50:37:864
1.3713;-2.3086;-9.4703;32559;2021-05-03 14:50:37:914
1.3713;-2.3086;-9.4703;32609;2021-05-03 14:50:37:964
1.388;-2.299;-9.4439;32659;2021-05-03 14:50:38:014
1.388;-2.299;-9.4439;32709;2021-05-03 14:50:38:064
1.388;-2.2655;-9.3936;32759;2021-05-03 14:50:38:114
1.388;-2.2655;-9.3936;32809;2021-05-03 14:50:38:164
1.4096;-2.3086;-9.4583;32859;2021-05-03 14:50:38:214
1.4096;-2.3086;-9.4583;32909;2021-05-03 14:50:38:264
1.3928;-2.2942;-9.4607;32958;2021-05-03 14:50:38:313
1.3928;-2.2942;-9.4607;33009;2021-05-03 14:50:38:364
1.3521;-2.2847;-9.4655;33059;2021-05-03 14:50:38:414
1.3521;-2.2847;-9.4655;33108;2021-05-03 14:50:38:463
1.3785;-2.2679;-9.396;33158;2021-05-03 14:50:38:513
1.3785;-2.2679;-9.396;33209;2021-05-03 14:50:38:564
1.4;-2.3397;-9.4439;33259;2021-05-03 14:50:38:614
1.4;-2.3397;-9.4439;33309;2021-05-03 14:50:38:664
1.3904;-2.2871;-9.42;33359;2021-05-03 14:50:38:714
1.3904;-2.2871;-9.42;33409;2021-05-03 14:50:38:764
1.3737;-2.2847;-9.4152;33459;2021-05-03 14:50:38:814
1.3737;-2.2847;-9.4152;33508;2021-05-03 14:50:38:863
1.2971;-2.3014;-9.4655;33558;2021-05-03 14:50:38:913
1.2971;-2.3014;-9.4655;33609;2021-05-03 14:50:38:964
1.412;-2.2942;-9.4032;33659;2021-05-03 14:50:39:014
1.412;-2.2942;-9.4032;33709;2021-05-03 14:50:39:064
1.3928;-2.3182;-9.4056;33759;2021-05-03 14:50:39:114
1.3928;-2.3182;-9.4056;33809;2021-05-03 14:50:39:164
1.3354;-2.2942;-9.4128;33859;2021-05-03 14:50:39:214
1.3354;-2.2942;-9.4128;33909;2021-05-03 14:50:39:264
1.4287;-2.311;-9.432;33959;2021-05-03 14:50:39:314
1.4287;-2.311;-9.432;34009;2021-05-03 14:50:39:364
1.4527;-2.2871;-9.4032;34059;2021-05-03 14:50:39:414
1.4527;-2.2871;-9.4032;34109;2021-05-03 14:50:39:464
1.388;-2.2823;-9.4415;34159;2021-05-03 14:50:39:514
1.388;-2.2823;-9.4415;34209;2021-05-03 14:50:39:564
1.4168;-2.2895;-9.4296;34259;2021-05-03 14:50:39:614
1.4168;-2.2895;-9.4296;34309;2021-05-03 14:50:39:664
1.4407;-2.3349;-9.4703;34359;2021-05-03 14:50:39:714
1.4407;-2.3349;-9.4703;34409;2021-05-03 14:50:39:764
1.4311;-2.2775;-9.4296;34459;2021-05-03 14:50:39:814
1.4311;-2.2775;-9.4296;34509;2021-05-03 14:50:39:864
1.4048;-2.2966;-9.4655;34559;2021-05-03 14:50:39:914
1.4048;-2.2966;-9.4655;34609;2021-05-03 14:50:39:964
1.4216;-2.2966;-9.4152;34659;2021-05-03 14:50:40:014
1.4216;-2.2966;-9.4152;34709;2021-05-03 14:50:40:064
1.412;-2.2966;-9.4391;34759;2021-05-03 14:50:40:114
1.412;-2.2966;-9.4391;34809;2021-05-03 14:50:40:164
1.3809;-2.323;-9.4176;34858;2021-05-03 14:50:40:213
1.3809;-2.323;-9.4176;34909;2021-05-03 14:50:40:264
1.4311;-2.2823;-9.4248;34958;2021-05-03 14:50:40:313
1.4311;-2.2823;-9.4248;35009;2021-05-03 14:50:40:364
1.4096;-2.2847;-9.4391;35059;2021-05-03 14:50:40:414
1.4096;-2.2847;-9.4391;35109;2021-05-03 14:50:40:464
1.4263;-2.323;-9.4583;35159;2021-05-03 14:50:40:514
1.4263;-2.323;-9.4583;35209;2021-05-03 14:50:40:564
1.4455;-2.3134;-9.4272;35259;2021-05-03 14:50:40:614
1.4455;-2.3134;-9.4272;35309;2021-05-03 14:50:40:664
1.4335;-2.2847;-9.4152;35359;2021-05-03 14:50:40:714
1.4335;-2.2847;-9.4152;35409;2021-05-03 14:50:40:764
1.4192;-2.3158;-9.4487;35459;2021-05-03 14:50:40:814
1.4192;-2.3158;-9.4487;35509;2021-05-03 14:50:40:864
1.3904;-2.232;-9.408;35559;2021-05-03 14:50:40:914
1.3904;-2.232;-9.408;35608;2021-05-03 14:50:40:963
1.4287;-2.3014;-9.4128;35659;2021-05-03 14:50:41:014
1.4287;-2.3014;-9.4128;35709;2021-05-03 14:50:41:064
1.3952;-2.3086;-9.4655;35758;2021-05-03 14:50:41:113
1.3952;-2.3086;-9.4655;35809;2021-05-03 14:50:41:164
1.4335;-2.2751;-9.4487;35858;2021-05-03 14:50:41:213
1.4335;-2.2751;-9.4487;35909;2021-05-03 14:50:41:264
1.4359;-2.3014;-9.4224;35959;2021-05-03 14:50:41:314
1.4359;-2.3014;-9.4224;36009;2021-05-03 14:50:41:364
1.4263;-2.311;-9.4439;36059;2021-05-03 14:50:41:414
1.4263;-2.311;-9.4439;36109;2021-05-03 14:50:41:464
1.412;-2.2679;-9.4104;36159;2021-05-03 14:50:41:514
1.412;-2.2679;-9.4104;36209;2021-05-03 14:50:41:564
1.4742;-2.2823;-9.4272;36259;2021-05-03 14:50:41:614
1.4742;-2.2823;-9.4272;36309;2021-05-03 14:50:41:664
1.388;-2.2847;-9.4248;36359;2021-05-03 14:50:41:714
1.388;-2.2847;-9.4248;36409;2021-05-03 14:50:41:764
1.3952;-2.3038;-9.4439;36459;2021-05-03 14:50:41:814
1.3952;-2.3038;-9.4439;36509;2021-05-03 14:50:41:864
1.4335;-2.2847;-9.4152;36559;2021-05-03 14:50:41:914
1.4335;-2.2847;-9.4152;36608;2021-05-03 14:50:41:963
1.4287;-2.2775;-9.4391;36659;2021-05-03 14:50:42:014
1.4287;-2.2775;-9.4391;36709;2021-05-03 14:50:42:064
1.4216;-2.2847;-9.4344;36759;2021-05-03 14:50:42:114
1.4216;-2.2847;-9.4344;36809;2021-05-03 14:50:42:164
1.4192;-2.2799;-9.4391;36859;2021-05-03 14:50:42:214
1.4192;-2.2799;-9.4391;36909;2021-05-03 14:50:42:264
1.4527;-2.2631;-9.4296;36958;2021-05-03 14:50:42:313
1.4527;-2.2631;-9.4296;37009;2021-05-03 14:50:42:364
1.4024;-2.2942;-9.3913;37059;2021-05-03 14:50:42:414
1.4024;-2.2942;-9.3913;37109;2021-05-03 14:50:42:464
1.4072;-2.3302;-9.4296;37159;2021-05-03 14:50:42:514
1.4072;-2.3302;-9.4296;37209;2021-05-03 14:50:42:564
1.4383;-2.2751;-9.4224;37259;2021-05-03 14:50:42:614
1.4383;-2.2751;-9.4224;37309;2021-05-03 14:50:42:664
1.3976;-2.2871;-9.4272;37359;2021-05-03 14:50:42:714
1.3976;-2.2871;-9.4272;37409;2021-05-03 14:50:42:764
1.4096;-2.2918;-9.4128;37459;2021-05-03 14:50:42:814
1.4096;-2.2918;-9.4128;37508;2021-05-03 14:50:42:863
1.4287;-2.2799;-9.4248;37559;2021-05-03 14:50:42:914
1.4287;-2.2799;-9.4248;37609;2021-05-03 14:50:42:964
1.424;-2.2823;-9.3936;37659;2021-05-03 14:50:43:014
1.424;-2.2823;-9.3936;37709;2021-05-03 14:50:43:064
1.424;-2.2895;-9.4152;37759;2021-05-03 14:50:43:114
1.424;-2.2895;-9.4152;37809;2021-05-03 14:50:43:164
1.4048;-2.2823;-9.4511;37859;2021-05-03 14:50:43:214
1.4048;-2.2823;-9.4511;37909;2021-05-03 14:50:43:264
1.4;-2.2847;-9.4463;37959;2021-05-03 14:50:43:314
1.4;-2.2847;-9.4463;38009;2021-05-03 14:50:43:364
1.4407;-2.299;-9.4128;38060;2021-05-03 14:50:43:415
1.4407;-2.299;-9.4128;38109;2021-05-03 14:50:43:464
1.4072;-2.2942;-9.4439;38159;2021-05-03 14:50:43:514
1.4072;-2.2942;-9.4439;38208;2021-05-03 14:50:43:563
1.412;-2.2727;-9.4798;38258;2021-05-03 14:50:43:613
1.412;-2.2727;-9.4798;38309;2021-05-03 14:50:43:664
1.4647;-2.2703;-9.4751;38359;2021-05-03 14:50:43:714
1.4647;-2.2703;-9.4751;38409;2021-05-03 14:50:43:764
1.3425;-2.2895;-9.4224;38459;2021-05-03 14:50:43:814
1.3425;-2.2895;-9.4224;38509;2021-05-03 14:50:43:864
1.424;-2.2392;-9.4846;38559;2021-05-03 14:50:43:914
1.424;-2.2392;-9.4846;38609;2021-05-03 14:50:43:964
1.491;-2.2583;-9.3841;38658;2021-05-03 14:50:44:013
1.491;-2.2583;-9.3841;38708;2021-05-03 14:50:44:063
1.4024;-2.3326;-9.4463;38759;2021-05-03 14:50:44:114
1.4024;-2.3326;-9.4463;38808;2021-05-03 14:50:44:163
1.3761;-2.2823;-9.4248;38858;2021-05-03 14:50:44:213
1.3761;-2.2823;-9.4248;38909;2021-05-03 14:50:44:264
1.4168;-2.2607;-9.4056;38959;2021-05-03 14:50:44:314
1.4168;-2.2607;-9.4056;39008;2021-05-03 14:50:44:363
1.4742;-2.3206;-9.4559;39058;2021-05-03 14:50:44:413
1.4742;-2.3206;-9.4559;39109;2021-05-03 14:50:44:464
1.412;-2.2176;-9.3865;39159;2021-05-03 14:50:44:514
1.412;-2.2176;-9.3865;39209;2021-05-03 14:50:44:564
1.4934;-2.3062;-9.4966;39259;2021-05-03 14:50:44:614
1.4934;-2.3062;-9.4966;39308;2021-05-03 14:50:44:663
1.3473;-2.3158;-9.5038;39359;2021-05-03 14:50:44:714
1.3473;-2.3158;-9.5038;39409;2021-05-03 14:50:44:764
1.3617;-2.2464;-9.3577;39459;2021-05-03 14:50:44:814
1.3617;-2.2464;-9.3577;39509;2021-05-03 14:50:44:864
1.4359;-2.3421;-9.4774;39559;2021-05-03 14:50:44:914
1.4359;-2.3421;-9.4774;39609;2021-05-03 14:50:44:964
1.3402;-2.232;-9.4008;39658;2021-05-03 14:50:45:013
1.3402;-2.232;-9.4008;39709;2021-05-03 14:50:45:064
1.4647;-2.2727;-9.3721;39758;2021-05-03 14:50:45:113
1.4647;-2.2727;-9.3721;39809;2021-05-03 14:50:45:164
1.4383;-2.3254;-9.4415;39859;2021-05-03 14:50:45:214
1.4383;-2.3254;-9.4415;39909;2021-05-03 14:50:45:264
1.4024;-2.2679;-9.4248;39959;2021-05-03 14:50:45:314
1.4024;-2.2679;-9.4248;40008;2021-05-03 14:50:45:363
1.4024;-2.2344;-9.4248;40059;2021-05-03 14:50:45:414
1.4024;-2.2344;-9.4248;40109;2021-05-03 14:50:45:464
1.3952;-2.2607;-9.42;40158;2021-05-03 14:50:45:513
1.3952;-2.2607;-9.42;40208;2021-05-03 14:50:45:563
1.4718;-2.2607;-9.4774;40258;2021-05-03 14:50:45:613
1.4718;-2.2607;-9.4774;40309;2021-05-03 14:50:45:664
1.3497;-2.323;-9.4367;40359;2021-05-03 14:50:45:714
1.3497;-2.323;-9.4367;40409;2021-05-03 14:50:45:764
1.4647;-2.2799;-9.4631;40459;2021-05-03 14:50:45:814
1.4647;-2.2799;-9.4631;40509;2021-05-03 14:50:45:864
1.4647;-2.2799;-9.4631;40559;2021-05-03 14:50:45:914
1.4311;-2.2416;-9.4152;40609;2021-05-03 14:50:45:964
1.4311;-2.2416;-9.4152;40659;2021-05-03 14:50:46:014
1.3497;-2.2559;-9.4487;40709;2021-05-03 14:50:46:064
1.3497;-2.2559;-9.4487;40759;2021-05-03 14:50:46:114
1.4144;-2.2416;-9.4272;40809;2021-05-03 14:50:46:164
1.4144;-2.2416;-9.4272;40859;2021-05-03 14:50:46:214
1.4551;-2.2535;-9.4391;40909;2021-05-03 14:50:46:264
1.4551;-2.2535;-9.4391;40958;2021-05-03 14:50:46:313
1.4024;-2.2583;-9.42;41009;2021-05-03 14:50:46:364
1.4024;-2.2583;-9.42;41059;2021-05-03 14:50:46:414
1.4096;-2.2847;-9.4391;41109;2021-05-03 14:50:46:464
1.4096;-2.2847;-9.4391;41159;2021-05-03 14:50:46:514
1.424;-2.2559;-9.4176;41208;2021-05-03 14:50:46:563
1.424;-2.2559;-9.4176;41258;2021-05-03 14:50:46:613
1.412;-2.2535;-9.4439;41308;2021-05-03 14:50:46:663
1.412;-2.2535;-9.4439;41359;2021-05-03 14:50:46:714
1.3569;-2.2799;-9.4224;41408;2021-05-03 14:50:46:763
1.3569;-2.2799;-9.4224;41458;2021-05-03 14:50:46:813
1.4287;-2.2775;-9.4439;41509;2021-05-03 14:50:46:864
1.4287;-2.2775;-9.4439;41559;2021-05-03 14:50:46:914
1.388;-2.2823;-9.4511;41609;2021-05-03 14:50:46:964
1.388;-2.2823;-9.4511;41658;2021-05-03 14:50:47:013
1.388;-2.2631;-9.4104;41709;2021-05-03 14:50:47:064
1.388;-2.2631;-9.4104;41759;2021-05-03 14:50:47:114
1.4048;-2.2751;-9.4511;41808;2021-05-03 14:50:47:163
1.4048;-2.2751;-9.4511;41859;2021-05-03 14:50:47:214
1.4072;-2.2751;-9.432;41908;2021-05-03 14:50:47:263
1.4072;-2.2751;-9.432;41958;2021-05-03 14:50:47:313
1.4072;-2.2607;-9.4415;42009;2021-05-03 14:50:47:364
1.4072;-2.2607;-9.4415;42059;2021-05-03 14:50:47:414
1.3976;-2.2679;-9.4391;42108;2021-05-03 14:50:47:463
1.3976;-2.2679;-9.4391;42158;2021-05-03 14:50:47:513
1.4072;-2.2727;-9.4439;42209;2021-05-03 14:50:47:564
1.4072;-2.2727;-9.4439;42259;2021-05-03 14:50:47:614
1.4048;-2.2727;-9.4367;42309;2021-05-03 14:50:47:664
1.4048;-2.2727;-9.4367;42359;2021-05-03 14:50:47:714
1.4168;-2.2607;-9.4224;42408;2021-05-03 14:50:47:763
1.4168;-2.2607;-9.4224;42459;2021-05-03 14:50:47:814
1.3833;-2.2966;-9.4583;42508;2021-05-03 14:50:47:863
1.3833;-2.2966;-9.4583;42559;2021-05-03 14:50:47:914
1.388;-2.2631;-9.42;42609;2021-05-03 14:50:47:964
1.388;-2.2631;-9.42;42658;2021-05-03 14:50:48:013
1.3976;-2.2775;-9.4655;42709;2021-05-03 14:50:48:064
1.3976;-2.2775;-9.4655;42759;2021-05-03 14:50:48:114
1.4168;-2.244;-9.4248;42809;2021-05-03 14:50:48:164
1.4168;-2.244;-9.4248;42859;2021-05-03 14:50:48:214
1.412;-2.2583;-9.42;42909;2021-05-03 14:50:48:264
1.412;-2.2583;-9.42;42958;2021-05-03 14:50:48:313
1.4048;-2.2966;-9.4583;43009;2021-05-03 14:50:48:364
1.4048;-2.2966;-9.4583;43059;2021-05-03 14:50:48:414
1.4024;-2.2488;-9.4344;43109;2021-05-03 14:50:48:464
1.4024;-2.2488;-9.4344;43159;2021-05-03 14:50:48:514
1.4192;-2.2583;-9.4487;43209;2021-05-03 14:50:48:564
1.4192;-2.2583;-9.4487;43259;2021-05-03 14:50:48:614
1.3952;-2.2751;-9.4511;43308;2021-05-03 14:50:48:663
1.3952;-2.2751;-9.4511;43359;2021-05-03 14:50:48:714
1.4048;-2.3062;-9.4774;43409;2021-05-03 14:50:48:764
1.4048;-2.3062;-9.4774;43458;2021-05-03 14:50:48:813
1.424;-2.2488;-9.4032;43509;2021-05-03 14:50:48:864
1.424;-2.2488;-9.4032;43559;2021-05-03 14:50:48:914
1.4096;-2.2679;-9.4415;43608;2021-05-03 14:50:48:963
1.4096;-2.2679;-9.4415;43658;2021-05-03 14:50:49:013
1.4216;-2.2631;-9.4224;43709;2021-05-03 14:50:49:064
1.4216;-2.2631;-9.4224;43759;2021-05-03 14:50:49:114
1.4216;-2.2559;-9.4344;43809;2021-05-03 14:50:49:164
1.4216;-2.2559;-9.4344;43859;2021-05-03 14:50:49:214
1.3928;-2.2799;-9.4367;43908;2021-05-03 14:50:49:263
1.3928;-2.2799;-9.4367;43959;2021-05-03 14:50:49:314
1.3976;-2.2679;-9.4487;44009;2021-05-03 14:50:49:364
1.3976;-2.2679;-9.4487;44059;2021-05-03 14:50:49:414
1.4048;-2.2751;-9.4559;44109;2021-05-03 14:50:49:464
1.4048;-2.2751;-9.4559;44158;2021-05-03 14:50:49:513
1.4096;-2.2152;-9.4248;44209;2021-05-03 14:50:49:564
1.4096;-2.2152;-9.4248;44259;2021-05-03 14:50:49:614
1.3952;-2.2583;-9.4344;44309;2021-05-03 14:50:49:664
1.3952;-2.2583;-9.4344;44359;2021-05-03 14:50:49:714
1.4;-2.2631;-9.4391;44409;2021-05-03 14:50:49:764
1.4;-2.2631;-9.4391;44459;2021-05-03 14:50:49:814
1.3952;-2.2895;-9.4272;44509;2021-05-03 14:50:49:864
1.3952;-2.2895;-9.4272;44559;2021-05-03 14:50:49:914
1.424;-2.2416;-9.4224;44609;2021-05-03 14:50:49:964
1.424;-2.2416;-9.4224;44658;2021-05-03 14:50:50:013
1.3928;-2.2727;-9.4463;44709;2021-05-03 14:50:50:064
1.3928;-2.2727;-9.4463;44759;2021-05-03 14:50:50:114
1.3928;-2.2488;-9.4224;44809;2021-05-03 14:50:50:164
1.3928;-2.2488;-9.4224;44859;2021-05-03 14:50:50:214
1.412;-2.244;-9.4296;44908;2021-05-03 14:50:50:263
1.412;-2.244;-9.4296;44958;2021-05-03 14:50:50:313
1.3976;-2.2823;-9.4487;45009;2021-05-03 14:50:50:364
1.3976;-2.2823;-9.4487;45059;2021-05-03 14:50:50:414
1.4048;-2.2966;-9.4703;45109;2021-05-03 14:50:50:464
1.4048;-2.2966;-9.4703;45159;2021-05-03 14:50:50:514
1.4072;-2.2464;-9.4104;45209;2021-05-03 14:50:50:564
1.4072;-2.2464;-9.4104;45258;2021-05-03 14:50:50:613
1.4072;-2.2727;-9.4439;45309;2021-05-03 14:50:50:664
1.4072;-2.2727;-9.4439;45358;2021-05-03 14:50:50:713
1.4168;-2.2488;-9.42;45409;2021-05-03 14:50:50:764
1.4168;-2.2488;-9.42;45459;2021-05-03 14:50:50:814
1.4096;-2.2679;-9.4272;45509;2021-05-03 14:50:50:864
1.4096;-2.2679;-9.4272;45559;2021-05-03 14:50:50:914
1.3856;-2.2775;-9.4463;45608;2021-05-03 14:50:50:963
1.3856;-2.2775;-9.4463;45658;2021-05-03 14:50:51:013
1.4168;-2.2559;-9.4391;45709;2021-05-03 14:50:51:064
1.4168;-2.2559;-9.4391;45759;2021-05-03 14:50:51:114
1.4168;-2.2679;-9.4415;45809;2021-05-03 14:50:51:164
1.4168;-2.2679;-9.4415;45859;2021-05-03 14:50:51:214
1.4024;-2.2152;-9.4272;45908;2021-05-03 14:50:51:263
1.4024;-2.2152;-9.4272;45959;2021-05-03 14:50:51:314
1.4407;-2.244;-9.4367;46009;2021-05-03 14:50:51:364
1.4407;-2.244;-9.4367;46058;2021-05-03 14:50:51:413
1.3809;-2.2535;-9.4104;46109;2021-05-03 14:50:51:464
1.3809;-2.2535;-9.4104;46159;2021-05-03 14:50:51:514
1.4168;-2.2823;-9.432;46208;2021-05-03 14:50:51:563
1.4168;-2.2823;-9.432;46258;2021-05-03 14:50:51:613
1.4072;-2.2488;-9.4559;46309;2021-05-03 14:50:51:664
1.4072;-2.2488;-9.4559;46359;2021-05-03 14:50:51:714
1.3976;-2.2607;-9.4391;46409;2021-05-03 14:50:51:764
1.3976;-2.2607;-9.4391;46459;2021-05-03 14:50:51:814
1.4048;-2.2607;-9.42;46508;2021-05-03 14:50:51:863
1.4048;-2.2607;-9.42;46559;2021-05-03 14:50:51:914
1.4048;-2.2535;-9.4344;46609;2021-05-03 14:50:51:964
1.4048;-2.2535;-9.4344;46658;2021-05-03 14:50:52:013
1.4024;-2.2655;-9.4391;46709;2021-05-03 14:50:52:064
1.4024;-2.2655;-9.4391;46759;2021-05-03 14:50:52:114
1.4072;-2.2248;-9.4056;46808;2021-05-03 14:50:52:163
1.4072;-2.2248;-9.4056;46858;2021-05-03 14:50:52:213
1.3976;-2.2583;-9.4415;46909;2021-05-03 14:50:52:264
1.3976;-2.2583;-9.4415;46959;2021-05-03 14:50:52:314
1.3833;-2.2559;-9.4535;47009;2021-05-03 14:50:52:364
1.3833;-2.2559;-9.4535;47059;2021-05-03 14:50:52:414
1.3713;-2.3182;-9.4391;47109;2021-05-03 14:50:52:464
1.3713;-2.3182;-9.4391;47159;2021-05-03 14:50:52:514
1.4072;-2.232;-9.4463;47209;2021-05-03 14:50:52:564
1.4072;-2.232;-9.4463;47259;2021-05-03 14:50:52:614
1.4216;-2.2703;-9.4391;47308;2021-05-03 14:50:52:663
1.4216;-2.2703;-9.4391;47358;2021-05-03 14:50:52:713
1.4024;-2.2655;-9.432;47409;2021-05-03 14:50:52:764
1.4024;-2.2655;-9.432;47459;2021-05-03 14:50:52:814
1.4024;-2.2368;-9.4535;47509;2021-05-03 14:50:52:864
1.4024;-2.2368;-9.4535;47559;2021-05-03 14:50:52:914
1.4024;-2.299;-9.4391;47609;2021-05-03 14:50:52:964
1.4024;-2.299;-9.4391;47659;2021-05-03 14:50:53:014
1.4383;-2.2679;-9.4272;47709;2021-05-03 14:50:53:064
1.4383;-2.2679;-9.4272;47759;2021-05-03 14:50:53:114
1.3952;-2.2655;-9.4248;47809;2021-05-03 14:50:53:164
1.3952;-2.2655;-9.4248;47859;2021-05-03 14:50:53:214
1.3952;-2.2823;-9.4487;47908;2021-05-03 14:50:53:263
1.3952;-2.2823;-9.4487;47958;2021-05-03 14:50:53:313
1.4024;-2.2368;-9.42;48009;2021-05-03 14:50:53:364
1.4024;-2.2368;-9.42;48059;2021-05-03 14:50:53:414
1.412;-2.2416;-9.4367;48109;2021-05-03 14:50:53:464
1.412;-2.2416;-9.4367;48159;2021-05-03 14:50:53:514
1.388;-2.2655;-9.4511;48209;2021-05-03 14:50:53:564
1.388;-2.2655;-9.4511;48259;2021-05-03 14:50:53:614
1.4096;-2.2464;-9.4296;48309;2021-05-03 14:50:53:664
1.4096;-2.2464;-9.4296;48359;2021-05-03 14:50:53:714
1.3904;-2.2488;-9.4439;48408;2021-05-03 14:50:53:763
1.3904;-2.2488;-9.4439;48459;2021-05-03 14:50:53:814
1.4;-2.2368;-9.4391;48509;2021-05-03 14:50:53:864
1.4;-2.2368;-9.4391;48559;2021-05-03 14:50:53:914
1.4024;-2.2344;-9.4535;48608;2021-05-03 14:50:53:963
1.4024;-2.2344;-9.4535;48658;2021-05-03 14:50:54:013
1.4096;-2.2607;-9.4224;48709;2021-05-03 14:50:54:064
1.4096;-2.2607;-9.4224;48758;2021-05-03 14:50:54:113
1.388;-2.2895;-9.4344;48809;2021-05-03 14:50:54:164
1.388;-2.2895;-9.4344;48858;2021-05-03 14:50:54:213
1.424;-2.2511;-9.4439;48909;2021-05-03 14:50:54:264
1.424;-2.2511;-9.4439;48959;2021-05-03 14:50:54:314
1.3928;-2.2607;-9.4224;49009;2021-05-03 14:50:54:364
1.3928;-2.2607;-9.4224;49059;2021-05-03 14:50:54:414
1.3761;-2.2679;-9.4248;49109;2021-05-03 14:50:54:464
1.3761;-2.2679;-9.4248;49159;2021-05-03 14:50:54:514
1.4192;-2.2511;-9.4391;49208;2021-05-03 14:50:54:563
1.4192;-2.2511;-9.4391;49258;2021-05-03 14:50:54:613
1.3952;-2.3062;-9.4583;49309;2021-05-03 14:50:54:664
1.3952;-2.3062;-9.4583;49359;2021-05-03 14:50:54:714
1.3785;-2.2559;-9.4367;49408;2021-05-03 14:50:54:763
1.3785;-2.2559;-9.4367;49458;2021-05-03 14:50:54:813
1.3856;-2.2583;-9.4631;49509;2021-05-03 14:50:54:864
1.3856;-2.2583;-9.4631;49559;2021-05-03 14:50:54:914
1.3976;-2.2655;-9.4391;49609;2021-05-03 14:50:54:964
1.3976;-2.2655;-9.4391;49659;2021-05-03 14:50:55:014
1.3904;-2.2583;-9.4391;49709;2021-05-03 14:50:55:064
1.3904;-2.2583;-9.4391;49759;2021-05-03 14:50:55:114
1.3785;-2.2799;-9.4583;49808;2021-05-03 14:50:55:163
1.3785;-2.2799;-9.4583;49858;2021-05-03 14:50:55:213
1.388;-2.2583;-9.4344;49909;2021-05-03 14:50:55:264
1.388;-2.2583;-9.4344;49959;2021-05-03 14:50:55:314
1.3856;-2.2751;-9.432;50009;2021-05-03 14:50:55:364
1.3856;-2.2751;-9.432;50059;2021-05-03 14:50:55:414
1.3713;-2.2799;-9.4367;50109;2021-05-03 14:50:55:464
1.3713;-2.2799;-9.4367;50159;2021-05-03 14:50:55:514
1.3809;-2.2703;-9.4559;50209;2021-05-03 14:50:55:564
1.3809;-2.2703;-9.4559;50259;2021-05-03 14:50:55:614
1.388;-2.2799;-9.4272;50309;2021-05-03 14:50:55:664
1.388;-2.2799;-9.4272;50358;2021-05-03 14:50:55:713
1.4096;-2.2631;-9.4128;50409;2021-05-03 14:50:55:764
1.4096;-2.2631;-9.4128;50459;2021-05-03 14:50:55:814
1.3976;-2.299;-9.4439;50509;2021-05-03 14:50:55:864
1.3976;-2.299;-9.4439;50559;2021-05-03 14:50:55:914
1.3737;-2.2464;-9.4391;50608;2021-05-03 14:50:55:963
1.3737;-2.2464;-9.4391;50658;2021-05-03 14:50:56:013
1.424;-2.2272;-9.4032;50709;2021-05-03 14:50:56:064
1.424;-2.2272;-9.4032;50759;2021-05-03 14:50:56:114
1.4335;-2.2751;-9.42;50809;2021-05-03 14:50:56:164
1.4335;-2.2751;-9.42;50859;2021-05-03 14:50:56:214
1.3809;-2.2631;-9.4104;50909;2021-05-03 14:50:56:264
1.3809;-2.2631;-9.4104;50959;2021-05-03 14:50:56:314
1.4024;-2.2847;-9.42;51009;2021-05-03 14:50:56:364
1.4024;-2.2847;-9.42;51059;2021-05-03 14:50:56:414
1.424;-2.2655;-9.4248;51109;2021-05-03 14:50:56:464
1.424;-2.2655;-9.4248;51159;2021-05-03 14:50:56:514
1.3833;-2.2583;-9.4391;51209;2021-05-03 14:50:56:564
1.3833;-2.2583;-9.4391;51258;2021-05-03 14:50:56:613
1.3952;-2.2583;-9.4344;51309;2021-05-03 14:50:56:664
1.3952;-2.2583;-9.4344;51358;2021-05-03 14:50:56:713
1.4216;-2.2823;-9.4391;51409;2021-05-03 14:50:56:764
1.4216;-2.2823;-9.4391;51459;2021-05-03 14:50:56:814
1.4168;-2.3086;-9.4846;51509;2021-05-03 14:50:56:864
1.4168;-2.3086;-9.4846;51559;2021-05-03 14:50:56:914
1.4216;-2.2392;-9.3936;51608;2021-05-03 14:50:56:963
1.4216;-2.2392;-9.3936;51658;2021-05-03 14:50:57:013
1.3952;-2.2942;-9.4344;51708;2021-05-03 14:50:57:063
1.3952;-2.2942;-9.4344;51758;2021-05-03 14:50:57:113
1.4144;-2.2679;-9.4344;51810;2021-05-03 14:50:57:165
1.4144;-2.2679;-9.4344;51858;2021-05-03 14:50:57:213
1.4;-2.244;-9.4248;51909;2021-05-03 14:50:57:264
1.4;-2.244;-9.4248;51958;2021-05-03 14:50:57:313
1.388;-2.2799;-9.4535;52009;2021-05-03 14:50:57:364
1.388;-2.2799;-9.4535;52059;2021-05-03 14:50:57:414
1.4216;-2.2368;-9.4583;52109;2021-05-03 14:50:57:464
1.4216;-2.2368;-9.4583;52159;2021-05-03 14:50:57:514
1.3545;-2.2296;-9.3984;52209;2021-05-03 14:50:57:564
1.3545;-2.2296;-9.3984;52259;2021-05-03 14:50:57:614
1.424;-2.2918;-9.4846;52309;2021-05-03 14:50:57:664
1.424;-2.2918;-9.4846;52359;2021-05-03 14:50:57:714
1.3809;-2.2607;-9.4104;52409;2021-05-03 14:50:57:764
1.3809;-2.2607;-9.4104;52459;2021-05-03 14:50:57:814
1.4599;-2.2416;-9.4176;52509;2021-05-03 14:50:57:864
1.4599;-2.2416;-9.4176;52559;2021-05-03 14:50:57:914
1.4024;-2.3062;-9.4918;52609;2021-05-03 14:50:57:964
1.4024;-2.3062;-9.4918;52659;2021-05-03 14:50:58:014
1.388;-2.2176;-9.4655;52709;2021-05-03 14:50:58:064
1.388;-2.2176;-9.4655;52759;2021-05-03 14:50:58:114
1.4096;-2.2272;-9.4272;52808;2021-05-03 14:50:58:163
1.4096;-2.2272;-9.4272;52859;2021-05-03 14:50:58:214
1.4048;-2.3014;-9.4774;52909;2021-05-03 14:50:58:264
1.4048;-2.3014;-9.4774;52959;2021-05-03 14:50:58:314
1.3856;-2.2248;-9.4391;53009;2021-05-03 14:50:58:364
1.3856;-2.2248;-9.4391;53059;2021-05-03 14:50:58:414
1.4216;-2.2895;-9.4128;53109;2021-05-03 14:50:58:464
1.4216;-2.2895;-9.4128;53159;2021-05-03 14:50:58:514
1.4144;-2.2655;-9.4894;53209;2021-05-03 14:50:58:564
1.4144;-2.2655;-9.4894;53258;2021-05-03 14:50:58:613
1.3976;-2.2368;-9.408;53309;2021-05-03 14:50:58:664
1.3976;-2.2368;-9.408;53359;2021-05-03 14:50:58:714
1.4407;-2.2823;-9.4415;53409;2021-05-03 14:50:58:764
1.4407;-2.2823;-9.4415;53459;2021-05-03 14:50:58:814
1.4024;-2.2799;-9.4751;53509;2021-05-03 14:50:58:864
1.4024;-2.2799;-9.4751;53559;2021-05-03 14:50:58:914
1.4407;-2.2224;-9.4511;53609;2021-05-03 14:50:58:964
1.4407;-2.2224;-9.4511;53658;2021-05-03 14:50:59:013
1.412;-2.2918;-9.4966;53709;2021-05-03 14:50:59:064
1.412;-2.2918;-9.4966;53759;2021-05-03 14:50:59:114
1.3785;-2.2488;-9.4128;53808;2021-05-03 14:50:59:163
1.3785;-2.2488;-9.4128;53858;2021-05-03 14:50:59:213
1.3904;-2.2224;-9.4367;53908;2021-05-03 14:50:59:263
1.3904;-2.2224;-9.4367;53959;2021-05-03 14:50:59:314
1.4287;-2.2679;-9.4128;54009;2021-05-03 14:50:59:364
1.4287;-2.2679;-9.4128;54059;2021-05-03 14:50:59:414
1.3856;-2.2607;-9.432;54109;2021-05-03 14:50:59:464
1.3856;-2.2607;-9.432;54159;2021-05-03 14:50:59:514
1.3952;-2.2703;-9.4583;54208;2021-05-03 14:50:59:563
1.3952;-2.2703;-9.4583;54259;2021-05-03 14:50:59:614
1.3952;-2.2464;-9.4296;54309;2021-05-03 14:50:59:664
1.3952;-2.2464;-9.4296;54359;2021-05-03 14:50:59:714
1.3952;-2.2535;-9.4439;54409;2021-05-03 14:50:59:764
1.3952;-2.2535;-9.4439;54459;2021-05-03 14:50:59:814
1.3928;-2.2511;-9.4152;54509;2021-05-03 14:50:59:864
1.3928;-2.2511;-9.4152;54559;2021-05-03 14:50:59:914
1.4431;-2.2392;-9.4367;54609;2021-05-03 14:50:59:964
1.4431;-2.2392;-9.4367;54659;2021-05-03 14:51:00:014
1.4096;-2.2583;-9.4032;54709;2021-05-03 14:51:00:064
1.4096;-2.2583;-9.4032;54759;2021-05-03 14:51:00:114
1.3904;-2.2703;-9.4391;54808;2021-05-03 14:51:00:163
1.3904;-2.2703;-9.4391;54859;2021-05-03 14:51:00:214
1.4168;-2.2583;-9.4415;54909;2021-05-03 14:51:00:264
1.4168;-2.2583;-9.4415;54958;2021-05-03 14:51:00:313
1.3976;-2.2655;-9.4367;55009;2021-05-03 14:51:00:364
1.3976;-2.2655;-9.4367;55059;2021-05-03 14:51:00:414
1.3856;-2.2488;-9.4248;55108;2021-05-03 14:51:00:463
1.3856;-2.2488;-9.4248;55159;2021-05-03 14:51:00:514
1.4192;-2.2464;-9.432;55209;2021-05-03 14:51:00:564
1.4192;-2.2464;-9.432;55259;2021-05-03 14:51:00:614
1.3904;-2.2751;-9.4415;55309;2021-05-03 14:51:00:664
1.3904;-2.2751;-9.4415;55359;2021-05-03 14:51:00:714
1.3928;-2.2368;-9.4176;55409;2021-05-03 14:51:00:764
1.3928;-2.2368;-9.4176;55458;2021-05-03 14:51:00:813
1.3952;-2.244;-9.4296;55508;2021-05-03 14:51:00:863
1.3952;-2.244;-9.4296;55558;2021-05-03 14:51:00:913
1.3833;-2.2655;-9.42;55609;2021-05-03 14:51:00:964
1.3833;-2.2655;-9.42;55659;2021-05-03 14:51:01:014
1.4048;-2.2823;-9.4296;55709;2021-05-03 14:51:01:064
1.4048;-2.2823;-9.4296;55759;2021-05-03 14:51:01:114
1.4096;-2.2535;-9.4463;55808;2021-05-03 14:51:01:163
1.4096;-2.2535;-9.4463;55859;2021-05-03 14:51:01:214
1.3856;-2.2631;-9.4487;55909;2021-05-03 14:51:01:264
1.3856;-2.2631;-9.4487;55959;2021-05-03 14:51:01:314
1.388;-2.2511;-9.4367;56009;2021-05-03 14:51:01:364
1.388;-2.2511;-9.4367;56059;2021-05-03 14:51:01:414
1.4168;-2.2655;-9.4415;56109;2021-05-03 14:51:01:464
1.4168;-2.2655;-9.4415;56159;2021-05-03 14:51:01:514
1.3976;-2.2583;-9.4272;56208;2021-05-03 14:51:01:563
1.3976;-2.2583;-9.4272;56258;2021-05-03 14:51:01:613
1.3952;-2.232;-9.42;56308;2021-05-03 14:51:01:663
1.3952;-2.232;-9.42;56358;2021-05-03 14:51:01:713
1.3952;-2.2583;-9.4439;56409;2021-05-03 14:51:01:764
1.3952;-2.2583;-9.4439;56458;2021-05-03 14:51:01:813
1.4048;-2.2559;-9.4679;56508;2021-05-03 14:51:01:863
1.4048;-2.2559;-9.4679;56559;2021-05-03 14:51:01:914
1.3856;-2.2655;-9.4344;56609;2021-05-03 14:51:01:964
1.3856;-2.2655;-9.4344;56658;2021-05-03 14:51:02:013
1.412;-2.2488;-9.4152;56708;2021-05-03 14:51:02:063
1.412;-2.2488;-9.4152;56758;2021-05-03 14:51:02:113
1.4048;-2.2775;-9.4439;56809;2021-05-03 14:51:02:164
1.4048;-2.2775;-9.4439;56859;2021-05-03 14:51:02:214
1.3952;-2.2559;-9.4152;56909;2021-05-03 14:51:02:264
1.3952;-2.2559;-9.4152;56958;2021-05-03 14:51:02:313
1.4072;-2.2559;-9.4248;57009;2021-05-03 14:51:02:364
1.4072;-2.2559;-9.4248;57059;2021-05-03 14:51:02:414
1.3976;-2.2631;-9.4391;57109;2021-05-03 14:51:02:464
1.3976;-2.2631;-9.4391;57158;2021-05-03 14:51:02:513
1.3761;-2.2655;-9.4367;57209;2021-05-03 14:51:02:564
1.3761;-2.2655;-9.4367;57259;2021-05-03 14:51:02:614
1.4024;-2.2775;-9.4727;57308;2021-05-03 14:51:02:663
1.4024;-2.2775;-9.4727;57359;2021-05-03 14:51:02:714
1.388;-2.2607;-9.4224;57409;2021-05-03 14:51:02:764
1.388;-2.2607;-9.4224;57459;2021-05-03 14:51:02:814
1.412;-2.2511;-9.4176;57509;2021-05-03 14:51:02:864
1.412;-2.2511;-9.4176;57558;2021-05-03 14:51:02:913
1.4072;-2.2823;-9.4487;57608;2021-05-03 14:51:02:963
1.4072;-2.2823;-9.4487;57659;2021-05-03 14:51:03:014
1.3856;-2.2416;-9.4296;57709;2021-05-03 14:51:03:064
1.3856;-2.2416;-9.4296;57759;2021-05-03 14:51:03:114
1.4;-2.2775;-9.4296;57808;2021-05-03 14:51:03:163
1.4;-2.2775;-9.4296;57858;2021-05-03 14:51:03:213
1.388;-2.3062;-9.4655;57908;2021-05-03 14:51:03:263
1.388;-2.3062;-9.4655;57959;2021-05-03 14:51:03:314
1.4168;-2.244;-9.42;58009;2021-05-03 14:51:03:364
1.4168;-2.244;-9.42;58059;2021-05-03 14:51:03:414
1.3593;-2.2703;-9.4487;58109;2021-05-03 14:51:03:464
1.3593;-2.2703;-9.4487;58158;2021-05-03 14:51:03:513
1.4072;-2.2703;-9.4104;58209;2021-05-03 14:51:03:564
1.4072;-2.2703;-9.4104;58259;2021-05-03 14:51:03:614
1.4599;-2.2344;-9.4056;58309;2021-05-03 14:51:03:664
1.4599;-2.2344;-9.4056;58359;2021-05-03 14:51:03:714
1.4024;-2.3134;-9.4487;58409;2021-05-03 14:51:03:764
1.4024;-2.3134;-9.4487;58459;2021-05-03 14:51:03:814
1.3713;-2.2511;-9.4679;58509;2021-05-03 14:51:03:864
1.3713;-2.2511;-9.4679;58558;2021-05-03 14:51:03:913
1.3833;-2.2368;-9.4152;58609;2021-05-03 14:51:03:964
1.3833;-2.2368;-9.4152;58659;2021-05-03 14:51:04:014
1.3713;-2.2679;-9.432;58709;2021-05-03 14:51:04:064
1.3713;-2.2679;-9.432;58758;2021-05-03 14:51:04:113
1.3928;-2.2751;-9.4344;58808;2021-05-03 14:51:04:163
1.3928;-2.2751;-9.4344;58859;2021-05-03 14:51:04:214
1.3952;-2.2464;-9.4679;58909;2021-05-03 14:51:04:264
1.3952;-2.2464;-9.4679;58959;2021-05-03 14:51:04:314
1.3689;-2.2895;-9.42;59009;2021-05-03 14:51:04:364
1.3689;-2.2895;-9.42;59059;2021-05-03 14:51:04:414
1.4623;-2.2679;-9.4224;59109;2021-05-03 14:51:04:464
1.4623;-2.2679;-9.4224;59159;2021-05-03 14:51:04:514
1.3402;-2.2248;-9.4439;59209;2021-05-03 14:51:04:564
1.3402;-2.2248;-9.4439;59258;2021-05-03 14:51:04:613
1.3641;-2.2631;-9.4679;59308;2021-05-03 14:51:04:663
1.3641;-2.2631;-9.4679;59359;2021-05-03 14:51:04:714
1.4072;-2.22;-9.4415;59409;2021-05-03 14:51:04:764
1.4072;-2.22;-9.4415;59459;2021-05-03 14:51:04:814
1.3833;-2.2416;-9.3649;59509;2021-05-03 14:51:04:864
1.3833;-2.2416;-9.3649;59559;2021-05-03 14:51:04:914
1.3569;-2.2679;-9.4367;59609;2021-05-03 14:51:04:964
1.3569;-2.2679;-9.4367;59658;2021-05-03 14:51:05:013
1.3569;-2.2679;-9.4367;59709;2021-05-03 14:51:05:064
1.4048;-2.232;-9.4248;59759;2021-05-03 14:51:05:114
1.4455;-2.3062;-9.4248;59809;2021-05-03 14:51:05:164
1.4455;-2.3062;-9.4248;59859;2021-05-03 14:51:05:214
1.4455;-2.3062;-9.4248;59909;2021-05-03 14:51:05:264
1.424;-2.2583;-9.4296;59958;2021-05-03 14:51:05:313
1.424;-2.2583;-9.4296;60008;2021-05-03 14:51:05:363
1.3833;-2.2631;-9.4391;60059;2021-05-03 14:51:05:414
1.3569;-2.2488;-9.4559;60109;2021-05-03 14:51:05:464
1.3569;-2.2488;-9.4559;60159;2021-05-03 14:51:05:514
1.3569;-2.2488;-9.4559;60209;2021-05-03 14:51:05:564
1.4216;-2.2272;-9.4128;60259;2021-05-03 14:51:05:614
1.4216;-2.2272;-9.4128;60309;2021-05-03 14:51:05:664
1.4263;-2.2511;-9.4391;60359;2021-05-03 14:51:05:714
1.3713;-2.2703;-9.42;60409;2021-05-03 14:51:05:764
1.3713;-2.2703;-9.42;60459;2021-05-03 14:51:05:814
1.3713;-2.2703;-9.42;60509;2021-05-03 14:51:05:864
1.3617;-2.2871;-9.4415;60559;2021-05-03 14:51:05:914
1.3617;-2.2871;-9.4415;60609;2021-05-03 14:51:05:964
1.4192;-2.244;-9.4511;60659;2021-05-03 14:51:06:014
1.4192;-2.244;-9.4511;60709;2021-05-03 14:51:06:064
1.3904;-2.2679;-9.4344;60759;2021-05-03 14:51:06:114
1.3904;-2.2679;-9.4344;60809;2021-05-03 14:51:06:164
1.3833;-2.2559;-9.42;60859;2021-05-03 14:51:06:214
1.3833;-2.2559;-9.42;60909;2021-05-03 14:51:06:264
1.4551;-2.2895;-9.42;60959;2021-05-03 14:51:06:314
1.4551;-2.2895;-9.42;61009;2021-05-03 14:51:06:364
1.388;-2.3254;-9.4727;61058;2021-05-03 14:51:06:413
1.388;-2.3254;-9.4727;61108;2021-05-03 14:51:06:463
1.4;-2.232;-9.408;61159;2021-05-03 14:51:06:514
1.4;-2.232;-9.408;61208;2021-05-03 14:51:06:563
1.4;-2.2775;-9.4559;61259;2021-05-03 14:51:06:614
1.4;-2.2775;-9.4559;61309;2021-05-03 14:51:06:664
1.4048;-2.2775;-9.4391;61359;2021-05-03 14:51:06:714
1.4048;-2.2775;-9.4391;61409;2021-05-03 14:51:06:764
1.3976;-2.2583;-9.4391;61459;2021-05-03 14:51:06:814
1.3976;-2.2583;-9.4391;61509;2021-05-03 14:51:06:864
1.3713;-2.2727;-9.4583;61559;2021-05-03 14:51:06:914
1.3713;-2.2727;-9.4583;61609;2021-05-03 14:51:06:964
1.388;-2.2535;-9.4415;61659;2021-05-03 14:51:07:014
1.388;-2.2535;-9.4415;61709;2021-05-03 14:51:07:064
1.3641;-2.2942;-9.4846;61759;2021-05-03 14:51:07:114
1.3641;-2.2942;-9.4846;61809;2021-05-03 14:51:07:164
1.3833;-2.2511;-9.4367;61859;2021-05-03 14:51:07:214
1.3833;-2.2511;-9.4367;61909;2021-05-03 14:51:07:264
1.3928;-2.2607;-9.4751;61959;2021-05-03 14:51:07:314
1.3928;-2.2607;-9.4751;62009;2021-05-03 14:51:07:364
1.4024;-2.2583;-9.4367;62059;2021-05-03 14:51:07:414
1.4024;-2.2583;-9.4367;62109;2021-05-03 14:51:07:464
1.4048;-2.2631;-9.4224;62159;2021-05-03 14:51:07:514
1.4048;-2.2631;-9.4224;62209;2021-05-03 14:51:07:564
1.388;-2.2799;-9.4655;62259;2021-05-03 14:51:07:614
1.388;-2.2799;-9.4655;62309;2021-05-03 14:51:07:664
1.3737;-2.2488;-9.4798;62359;2021-05-03 14:51:07:714
1.3737;-2.2488;-9.4798;62409;2021-05-03 14:51:07:764
1.3809;-2.2918;-9.4846;62458;2021-05-03 14:51:07:813
1.3809;-2.2918;-9.4846;62508;2021-05-03 14:51:07:863
1.3737;-2.2583;-9.4128;62559;2021-05-03 14:51:07:914
1.3737;-2.2583;-9.4128;62608;2021-05-03 14:51:07:963
1.4024;-2.2871;-9.4487;62659;2021-05-03 14:51:08:014
1.4024;-2.2871;-9.4487;62709;2021-05-03 14:51:08:064
1.4263;-2.2703;-9.4152;62759;2021-05-03 14:51:08:114
1.4263;-2.2703;-9.4152;62809;2021-05-03 14:51:08:164
1.4096;-2.2631;-9.4032;62859;2021-05-03 14:51:08:214
1.4096;-2.2631;-9.4032;62909;2021-05-03 14:51:08:264
1.3904;-2.2895;-9.4367;62959;2021-05-03 14:51:08:314
1.3904;-2.2895;-9.4367;63008;2021-05-03 14:51:08:363
1.4048;-2.2104;-9.3984;63059;2021-05-03 14:51:08:414
1.4048;-2.2104;-9.3984;63109;2021-05-03 14:51:08:464
1.4072;-2.2535;-9.4104;63159;2021-05-03 14:51:08:514
1.4072;-2.2535;-9.4104;63208;2021-05-03 14:51:08:563
1.3928;-2.2607;-9.432;63258;2021-05-03 14:51:08:613
1.3928;-2.2607;-9.432;63309;2021-05-03 14:51:08:664
1.3856;-2.2775;-9.4272;63359;2021-05-03 14:51:08:714
1.3856;-2.2775;-9.4272;63409;2021-05-03 14:51:08:764
1.4335;-2.2464;-9.4056;63458;2021-05-03 14:51:08:813
1.4335;-2.2464;-9.4056;63509;2021-05-03 14:51:08:864
1.3928;-2.2607;-9.4535;63559;2021-05-03 14:51:08:914
1.3928;-2.2607;-9.4535;63608;2021-05-03 14:51:08:963
1.3976;-2.2464;-9.4128;63659;2021-05-03 14:51:09:014
1.3976;-2.2464;-9.4128;63709;2021-05-03 14:51:09:064
1.4024;-2.2152;-9.4128;63759;2021-05-03 14:51:09:114
1.4024;-2.2152;-9.4128;63809;2021-05-03 14:51:09:164
1.3904;-2.2416;-9.4439;63859;2021-05-03 14:51:09:214
1.3904;-2.2416;-9.4439;63909;2021-05-03 14:51:09:264
1.3761;-2.2488;-9.4487;63959;2021-05-03 14:51:09:314
1.3761;-2.2488;-9.4487;64008;2021-05-03 14:51:09:363
1.3856;-2.2703;-9.432;64059;2021-05-03 14:51:09:414
1.3856;-2.2703;-9.432;64109;2021-05-03 14:51:09:464
1.4072;-2.2559;-9.4176;64158;2021-05-03 14:51:09:513
1.4072;-2.2559;-9.4176;64209;2021-05-03 14:51:09:564
1.3976;-2.2703;-9.4367;64259;2021-05-03 14:51:09:614
1.3976;-2.2703;-9.4367;64309;2021-05-03 14:51:09:664
1.4;-2.2511;-9.4296;64358;2021-05-03 14:51:09:713
1.4;-2.2511;-9.4296;64409;2021-05-03 14:51:09:764
1.3952;-2.2344;-9.4224;64459;2021-05-03 14:51:09:814
1.3952;-2.2344;-9.4224;64509;2021-05-03 14:51:09:864
1.412;-2.2488;-9.42;64559;2021-05-03 14:51:09:914
1.412;-2.2488;-9.42;64608;2021-05-03 14:51:09:963
1.3809;-2.2511;-9.408;64659;2021-05-03 14:51:10:014
1.3809;-2.2511;-9.408;64709;2021-05-03 14:51:10:064
1.3976;-2.2895;-9.4415;64759;2021-05-03 14:51:10:114
1.3976;-2.2895;-9.4415;64809;2021-05-03 14:51:10:164
1.4192;-2.2511;-9.4296;64859;2021-05-03 14:51:10:214
1.4192;-2.2511;-9.4296;64909;2021-05-03 14:51:10:264
1.3976;-2.2559;-9.432;64958;2021-05-03 14:51:10:313
1.3976;-2.2559;-9.432;65009;2021-05-03 14:51:10:364
1.388;-2.2464;-9.432;65059;2021-05-03 14:51:10:414
1.388;-2.2464;-9.432;65109;2021-05-03 14:51:10:464
1.4024;-2.2368;-9.4344;65159;2021-05-03 14:51:10:514
1.4024;-2.2368;-9.4344;65209;2021-05-03 14:51:10:564
1.4311;-2.2416;-9.4415;65258;2021-05-03 14:51:10:613
1.4311;-2.2416;-9.4415;65309;2021-05-03 14:51:10:664
1.3809;-2.2559;-9.4056;65359;2021-05-03 14:51:10:714
1.3809;-2.2559;-9.4056;65408;2021-05-03 14:51:10:763
1.3976;-2.2607;-9.4391;65459;2021-05-03 14:51:10:814
1.3976;-2.2607;-9.4391;65509;2021-05-03 14:51:10:864
1.4024;-2.2535;-9.4296;65559;2021-05-03 14:51:10:914
1.4024;-2.2535;-9.4296;65609;2021-05-03 14:51:10:964
1.4;-2.2607;-9.4391;65659;2021-05-03 14:51:11:014
1.4;-2.2607;-9.4391;65709;2021-05-03 14:51:11:064
1.3952;-2.2535;-9.4128;65759;2021-05-03 14:51:11:114
1.3952;-2.2535;-9.4128;65808;2021-05-03 14:51:11:163
1.4048;-2.2942;-9.4439;65859;2021-05-03 14:51:11:214
1.4048;-2.2942;-9.4439;65909;2021-05-03 14:51:11:264
1.3737;-2.2559;-9.4296;65958;2021-05-03 14:51:11:313
1.3737;-2.2559;-9.4296;66009;2021-05-03 14:51:11:364
1.4096;-2.2583;-9.4511;66059;2021-05-03 14:51:11:414
1.4096;-2.2583;-9.4511;66109;2021-05-03 14:51:11:464
1.4192;-2.2727;-9.4272;66159;2021-05-03 14:51:11:514
1.4192;-2.2727;-9.4272;66208;2021-05-03 14:51:11:563
1.388;-2.2535;-9.4248;66259;2021-05-03 14:51:11:614
1.388;-2.2535;-9.4248;66309;2021-05-03 14:51:11:664
1.3785;-2.2751;-9.4535;66359;2021-05-03 14:51:11:714
1.3785;-2.2751;-9.4535;66409;2021-05-03 14:51:11:764
1.4024;-2.2392;-9.4391;66459;2021-05-03 14:51:11:814
1.4024;-2.2392;-9.4391;66509;2021-05-03 14:51:11:864
1.4;-2.2176;-9.4056;66559;2021-05-03 14:51:11:914
1.4;-2.2176;-9.4056;66608;2021-05-03 14:51:11:963
1.3713;-2.2392;-9.4152;66659;2021-05-03 14:51:12:014
1.3713;-2.2392;-9.4152;66709;2021-05-03 14:51:12:064
1.3952;-2.2679;-9.432;66759;2021-05-03 14:51:12:114
1.3952;-2.2679;-9.432;66809;2021-05-03 14:51:12:164
1.3737;-2.2703;-9.4176;66858;2021-05-03 14:51:12:213
1.3737;-2.2703;-9.4176;66908;2021-05-03 14:51:12:263
1.3976;-2.2488;-9.4176;66959;2021-05-03 14:51:12:314
1.3976;-2.2488;-9.4176;67009;2021-05-03 14:51:12:364
1.3761;-2.2703;-9.4511;67059;2021-05-03 14:51:12:414
1.3761;-2.2703;-9.4511;67109;2021-05-03 14:51:12:464
1.3976;-2.2296;-9.4248;67159;2021-05-03 14:51:12:514
1.3976;-2.2296;-9.4248;67209;2021-05-03 14:51:12:564
1.4192;-2.2727;-9.432;67258;2021-05-03 14:51:12:613
1.4192;-2.2727;-9.432;67309;2021-05-03 14:51:12:664
1.3904;-2.3134;-9.4798;67359;2021-05-03 14:51:12:714
1.3904;-2.3134;-9.4798;67409;2021-05-03 14:51:12:764
1.4168;-2.2104;-9.4104;67459;2021-05-03 14:51:12:814
1.4168;-2.2104;-9.4104;67509;2021-05-03 14:51:12:864
1.3761;-2.2942;-9.4415;67558;2021-05-03 14:51:12:913
1.3761;-2.2942;-9.4415;67609;2021-05-03 14:51:12:964
1.4;-2.2727;-9.4367;67658;2021-05-03 14:51:13:013
1.4;-2.2727;-9.4367;67709;2021-05-03 14:51:13:064
1.4;-2.2535;-9.4367;67759;2021-05-03 14:51:13:114
1.4;-2.2535;-9.4367;67809;2021-05-03 14:51:13:164
1.3761;-2.2655;-9.4511;67858;2021-05-03 14:51:13:213
1.3761;-2.2655;-9.4511;67908;2021-05-03 14:51:13:263
1.4096;-2.2703;-9.4463;67959;2021-05-03 14:51:13:314
1.4096;-2.2703;-9.4463;68009;2021-05-03 14:51:13:364
1.4192;-2.311;-9.4751;68058;2021-05-03 14:51:13:413
1.4192;-2.311;-9.4751;68109;2021-05-03 14:51:13:464
1.3713;-2.2464;-9.4032;68159;2021-05-03 14:51:13:514
1.3713;-2.2464;-9.4032;68209;2021-05-03 14:51:13:564
1.3785;-2.2583;-9.4607;68259;2021-05-03 14:51:13:614
1.3785;-2.2583;-9.4607;68309;2021-05-03 14:51:13:664
1.4192;-2.2607;-9.4487;68359;2021-05-03 14:51:13:714
1.4192;-2.2607;-9.4487;68409;2021-05-03 14:51:13:764
1.4048;-2.2655;-9.4296;68458;2021-05-03 14:51:13:813
1.4048;-2.2655;-9.4296;68509;2021-05-03 14:51:13:864
1.4048;-2.2607;-9.432;68559;2021-05-03 14:51:13:914
1.4048;-2.2607;-9.432;68608;2021-05-03 14:51:13:963
1.4048;-2.2895;-9.4511;68658;2021-05-03 14:51:14:013
1.4048;-2.2895;-9.4511;68709;2021-05-03 14:51:14:064
1.3689;-2.2942;-9.4439;68759;2021-05-03 14:51:14:114
1.3689;-2.2942;-9.4439;68809;2021-05-03 14:51:14:164
1.3976;-2.2392;-9.396;68859;2021-05-03 14:51:14:214
1.3976;-2.2392;-9.396;68908;2021-05-03 14:51:14:263
1.4;-2.2631;-9.4487;68959;2021-05-03 14:51:14:314
1.4;-2.2631;-9.4487;69009;2021-05-03 14:51:14:364
1.4096;-2.244;-9.4391;69058;2021-05-03 14:51:14:413
1.4096;-2.244;-9.4391;69109;2021-05-03 14:51:14:464
1.3952;-2.2631;-9.4415;69159;2021-05-03 14:51:14:514
1.3952;-2.2631;-9.4415;69208;2021-05-03 14:51:14:563
1.3833;-2.2679;-9.432;69259;2021-05-03 14:51:14:614
1.3833;-2.2679;-9.432;69308;2021-05-03 14:51:14:663
1.4144;-2.2559;-9.4296;69359;2021-05-03 14:51:14:714
1.4144;-2.2559;-9.4296;69409;2021-05-03 14:51:14:764
1.3928;-2.232;-9.4128;69459;2021-05-03 14:51:14:814
1.3928;-2.232;-9.4128;69509;2021-05-03 14:51:14:864
1.3904;-2.2583;-9.432;69559;2021-05-03 14:51:14:914
1.3904;-2.2583;-9.432;69609;2021-05-03 14:51:14:964
1.3713;-2.2583;-9.4607;69659;2021-05-03 14:51:15:014
1.3713;-2.2583;-9.4607;69709;2021-05-03 14:51:15:064
1.3976;-2.2775;-9.4296;69759;2021-05-03 14:51:15:114
1.3976;-2.2775;-9.4296;69808;2021-05-03 14:51:15:163
1.4168;-2.2559;-9.4224;69859;2021-05-03 14:51:15:214
1.4168;-2.2559;-9.4224;69909;2021-05-03 14:51:15:264
1.3952;-2.2751;-9.4535;69958;2021-05-03 14:51:15:313
1.3952;-2.2751;-9.4535;70009;2021-05-03 14:51:15:364
1.3976;-2.244;-9.4296;70058;2021-05-03 14:51:15:413
1.3976;-2.244;-9.4296;70109;2021-05-03 14:51:15:464
1.3952;-2.2583;-9.4391;70159;2021-05-03 14:51:15:514
1.3952;-2.2583;-9.4391;70209;2021-05-03 14:51:15:564
1.388;-2.2655;-9.4439;70258;2021-05-03 14:51:15:613
1.388;-2.2655;-9.4439;70308;2021-05-03 14:51:15:663
1.4144;-2.2559;-9.4391;70358;2021-05-03 14:51:15:713
1.4144;-2.2559;-9.4391;70409;2021-05-03 14:51:15:764
1.4048;-2.2464;-9.4104;70459;2021-05-03 14:51:15:814
1.4048;-2.2464;-9.4104;70509;2021-05-03 14:51:15:864
1.4;-2.2751;-9.4152;70559;2021-05-03 14:51:15:914
1.4;-2.2751;-9.4152;70609;2021-05-03 14:51:15:964
1.3904;-2.2272;-9.4415;70659;2021-05-03 14:51:16:014
1.3904;-2.2272;-9.4415;70709;2021-05-03 14:51:16:064
1.4;-2.299;-9.4056;70759;2021-05-03 14:51:16:114
1.4;-2.299;-9.4056;70809;2021-05-03 14:51:16:164
1.4335;-2.2607;-9.4128;70859;2021-05-03 14:51:16:214
1.4335;-2.2607;-9.4128;70908;2021-05-03 14:51:16:263
1.4048;-2.2583;-9.4391;70959;2021-05-03 14:51:16:314
1.4048;-2.2583;-9.4391;71009;2021-05-03 14:51:16:364
1.388;-2.2583;-9.4248;71059;2021-05-03 14:51:16:414
1.388;-2.2583;-9.4248;71108;2021-05-03 14:51:16:463
1.4048;-2.2607;-9.4344;71158;2021-05-03 14:51:16:513
1.4048;-2.2607;-9.4344;71209;2021-05-03 14:51:16:564
1.4;-2.2895;-9.4535;71259;2021-05-03 14:51:16:614
1.4;-2.2895;-9.4535;71309;2021-05-03 14:51:16:664
1.4;-2.3086;-9.4631;71359;2021-05-03 14:51:16:714
1.4;-2.3086;-9.4631;71409;2021-05-03 14:51:16:764
1.3952;-2.2392;-9.4032;71459;2021-05-03 14:51:16:814
1.3952;-2.2392;-9.4032;71509;2021-05-03 14:51:16:864
1.3976;-2.2751;-9.4487;71559;2021-05-03 14:51:16:914
1.3976;-2.2751;-9.4487;71608;2021-05-03 14:51:16:963
1.4072;-2.2727;-9.4248;71659;2021-05-03 14:51:17:014
1.4072;-2.2727;-9.4248;71709;2021-05-03 14:51:17:064
1.3952;-2.2703;-9.432;71759;2021-05-03 14:51:17:114
1.3952;-2.2703;-9.432;71809;2021-05-03 14:51:17:164
1.3904;-2.2727;-9.4511;71858;2021-05-03 14:51:17:213
1.3904;-2.2727;-9.4511;71909;2021-05-03 14:51:17:264
1.4072;-2.2535;-9.4296;71959;2021-05-03 14:51:17:314
1.4072;-2.2535;-9.4296;72009;2021-05-03 14:51:17:364
1.4;-2.2607;-9.4367;72058;2021-05-03 14:51:17:413
1.4;-2.2607;-9.4367;72108;2021-05-03 14:51:17:463
1.3856;-2.2535;-9.4272;72158;2021-05-03 14:51:17:513
1.3856;-2.2535;-9.4272;72208;2021-05-03 14:51:17:563
1.424;-2.244;-9.4559;72259;2021-05-03 14:51:17:614
1.424;-2.244;-9.4559;72308;2021-05-03 14:51:17:663
1.3761;-2.2511;-9.4008;72358;2021-05-03 14:51:17:713
1.3761;-2.2511;-9.4008;72408;2021-05-03 14:51:17:763
1.3904;-2.2655;-9.4487;72458;2021-05-03 14:51:17:813
1.3904;-2.2655;-9.4487;72509;2021-05-03 14:51:17:864
1.4168;-2.2679;-9.4487;72559;2021-05-03 14:51:17:914
1.4168;-2.2679;-9.4487;72609;2021-05-03 14:51:17:964
1.3833;-2.2679;-9.4607;72658;2021-05-03 14:51:18:013
1.3833;-2.2679;-9.4607;72708;2021-05-03 14:51:18:063
1.3785;-2.2703;-9.4296;72758;2021-05-03 14:51:18:113
1.3785;-2.2703;-9.4296;72809;2021-05-03 14:51:18:164
1.4192;-2.2583;-9.4296;72859;2021-05-03 14:51:18:214
1.4192;-2.2583;-9.4296;72909;2021-05-03 14:51:18:264
1.3904;-2.2751;-9.4248;72959;2021-05-03 14:51:18:314
1.3904;-2.2751;-9.4248;73009;2021-05-03 14:51:18:364
1.3737;-2.2559;-9.4296;73059;2021-05-03 14:51:18:414
1.3737;-2.2559;-9.4296;73108;2021-05-03 14:51:18:463
1.3665;-2.2607;-9.4511;73158;2021-05-03 14:51:18:513
1.3665;-2.2607;-9.4511;73208;2021-05-03 14:51:18:563
1.3904;-2.2655;-9.4607;73259;2021-05-03 14:51:18:614
1.3904;-2.2655;-9.4607;73309;2021-05-03 14:51:18:664
1.3785;-2.2679;-9.4128;73358;2021-05-03 14:51:18:713
1.3785;-2.2679;-9.4128;73408;2021-05-03 14:51:18:763
1.4072;-2.2488;-9.408;73458;2021-05-03 14:51:18:813
1.4072;-2.2488;-9.408;73509;2021-05-03 14:51:18:864
1.3809;-2.2727;-9.4511;73559;2021-05-03 14:51:18:914
1.3809;-2.2727;-9.4511;73609;2021-05-03 14:51:18:964
1.3952;-2.2655;-9.432;73658;2021-05-03 14:51:19:013
1.3952;-2.2655;-9.432;73708;2021-05-03 14:51:19:063
1.4072;-2.2607;-9.4391;73759;2021-05-03 14:51:19:114
1.4072;-2.2607;-9.4391;73809;2021-05-03 14:51:19:164
1.3833;-2.2703;-9.4535;73859;2021-05-03 14:51:19:214
1.3833;-2.2703;-9.4535;73909;2021-05-03 14:51:19:264
1.3713;-2.2727;-9.4439;73959;2021-05-03 14:51:19:314
1.3713;-2.2727;-9.4439;74009;2021-05-03 14:51:19:364
1.3976;-2.2727;-9.4703;74059;2021-05-03 14:51:19:414
1.3976;-2.2727;-9.4703;74109;2021-05-03 14:51:19:464
1.3856;-2.2583;-9.3936;74159;2021-05-03 14:51:19:514
1.3856;-2.2583;-9.3936;74209;2021-05-03 14:51:19:564
1.4168;-2.2559;-9.4128;74259;2021-05-03 14:51:19:614
1.4168;-2.2559;-9.4128;74309;2021-05-03 14:51:19:664
1.3809;-2.2799;-9.4607;74358;2021-05-03 14:51:19:713
1.3809;-2.2799;-9.4607;74408;2021-05-03 14:51:19:763
1.3904;-2.2631;-9.4439;74459;2021-05-03 14:51:19:814
1.3904;-2.2631;-9.4439;74508;2021-05-03 14:51:19:863
1.3952;-2.2559;-9.432;74558;2021-05-03 14:51:19:913
1.3952;-2.2559;-9.432;74609;2021-05-03 14:51:19:964
1.3976;-2.2488;-9.4152;74659;2021-05-03 14:51:20:014
1.3976;-2.2488;-9.4152;74709;2021-05-03 14:51:20:064
1.3665;-2.2583;-9.4272;74759;2021-05-03 14:51:20:114
1.3665;-2.2583;-9.4272;74809;2021-05-03 14:51:20:164
1.3833;-2.2823;-9.4272;74858;2021-05-03 14:51:20:213
1.3833;-2.2823;-9.4272;74909;2021-05-03 14:51:20:264
1.3856;-2.2679;-9.4056;74959;2021-05-03 14:51:20:314
1.3856;-2.2679;-9.4056;75009;2021-05-03 14:51:20:364
1.4072;-2.2392;-9.4248;75059;2021-05-03 14:51:20:414
1.4072;-2.2392;-9.4248;75109;2021-05-03 14:51:20:464
1.3833;-2.2799;-9.4607;75159;2021-05-03 14:51:20:514
1.3833;-2.2799;-9.4607;75209;2021-05-03 14:51:20:564
1.3904;-2.2464;-9.4367;75259;2021-05-03 14:51:20:614
1.3904;-2.2464;-9.4367;75309;2021-05-03 14:51:20:664
1.3928;-2.2559;-9.4511;75359;2021-05-03 14:51:20:714
1.3928;-2.2559;-9.4511;75409;2021-05-03 14:51:20:764
1.4024;-2.2727;-9.4631;75459;2021-05-03 14:51:20:814
1.4024;-2.2727;-9.4631;75509;2021-05-03 14:51:20:864
1.3952;-2.2895;-9.4751;75558;2021-05-03 14:51:20:913
1.3952;-2.2895;-9.4751;75609;2021-05-03 14:51:20:964
1.3761;-2.2344;-9.408;75659;2021-05-03 14:51:21:014
1.3761;-2.2344;-9.408;75709;2021-05-03 14:51:21:064
1.3904;-2.2751;-9.4583;75759;2021-05-03 14:51:21:114
1.3904;-2.2751;-9.4583;75808;2021-05-03 14:51:21:163
1.4;-2.2583;-9.4272;75859;2021-05-03 14:51:21:214
1.4;-2.2583;-9.4272;75909;2021-05-03 14:51:21:264
1.3952;-2.2703;-9.4224;75959;2021-05-03 14:51:21:314
1.3952;-2.2703;-9.4224;76009;2021-05-03 14:51:21:364
1.3761;-2.2966;-9.4535;76059;2021-05-03 14:51:21:414
1.3761;-2.2966;-9.4535;76109;2021-05-03 14:51:21:464
1.4072;-2.244;-9.4487;76159;2021-05-03 14:51:21:514
1.4072;-2.244;-9.4487;76208;2021-05-03 14:51:21:563
1.3856;-2.2703;-9.4248;76258;2021-05-03 14:51:21:613
1.3856;-2.2703;-9.4248;76309;2021-05-03 14:51:21:664
1.4168;-2.2583;-9.4535;76359;2021-05-03 14:51:21:714
1.4168;-2.2583;-9.4535;76409;2021-05-03 14:51:21:764
1.3713;-2.232;-9.3913;76459;2021-05-03 14:51:21:814
1.3713;-2.232;-9.3913;76508;2021-05-03 14:51:21:863
1.3856;-2.2751;-9.4463;76559;2021-05-03 14:51:21:914
1.3856;-2.2751;-9.4463;76609;2021-05-03 14:51:21:964
1.3904;-2.2488;-9.4751;76659;2021-05-03 14:51:22:014
1.3904;-2.2488;-9.4751;76709;2021-05-03 14:51:22:064
1.4838;-2.3589;-9.3817;76759;2021-05-03 14:51:22:114
1.4838;-2.3589;-9.3817;76809;2021-05-03 14:51:22:164
1.3545;-2.2511;-9.499;76859;2021-05-03 14:51:22:214
1.3545;-2.2511;-9.499;76909;2021-05-03 14:51:22:264
1.3473;-2.2511;-9.4224;76959;2021-05-03 14:51:22:314
1.3473;-2.2511;-9.4224;77009;2021-05-03 14:51:22:364
1.424;-2.2559;-9.42;77059;2021-05-03 14:51:22:414
1.424;-2.2559;-9.42;77108;2021-05-03 14:51:22:463
1.3856;-2.2966;-9.4511;77159;2021-05-03 14:51:22:514
1.3856;-2.2966;-9.4511;77209;2021-05-03 14:51:22:564
1.3856;-2.2847;-9.4727;77259;2021-05-03 14:51:22:614
1.3856;-2.2847;-9.4727;77309;2021-05-03 14:51:22:664
1.3617;-2.2631;-9.4152;77359;2021-05-03 14:51:22:714
1.3617;-2.2631;-9.4152;77409;2021-05-03 14:51:22:764
1.4311;-2.2607;-9.4008;77459;2021-05-03 14:51:22:814
1.4311;-2.2607;-9.4008;77509;2021-05-03 14:51:22:864
1.3713;-2.2942;-9.4798;77559;2021-05-03 14:51:22:914
1.3713;-2.2942;-9.4798;77609;2021-05-03 14:51:22:964
1.3785;-2.2464;-9.408;77659;2021-05-03 14:51:23:014
1.3785;-2.2464;-9.408;77709;2021-05-03 14:51:23:064
1.4048;-2.2751;-9.4391;77759;2021-05-03 14:51:23:114
1.4048;-2.2751;-9.4391;77808;2021-05-03 14:51:23:163
1.3976;-2.3302;-9.4583;77859;2021-05-03 14:51:23:214
1.3976;-2.3302;-9.4583;77909;2021-05-03 14:51:23:264
1.3976;-2.2583;-9.4248;77959;2021-05-03 14:51:23:314
1.3976;-2.2583;-9.4248;78009;2021-05-03 14:51:23:364
1.3856;-2.2607;-9.4535;78059;2021-05-03 14:51:23:414
1.3856;-2.2607;-9.4535;78108;2021-05-03 14:51:23:463
1.4192;-2.2655;-9.4104;78159;2021-05-03 14:51:23:514
1.4192;-2.2655;-9.4104;78209;2021-05-03 14:51:23:564
1.3833;-2.2847;-9.4224;78259;2021-05-03 14:51:23:614
1.3833;-2.2847;-9.4224;78309;2021-05-03 14:51:23:664
1.3928;-2.2895;-9.4559;78359;2021-05-03 14:51:23:714
1.3928;-2.2895;-9.4559;78409;2021-05-03 14:51:23:764
1.4072;-2.2631;-9.4583;78459;2021-05-03 14:51:23:814
1.4072;-2.2631;-9.4583;78509;2021-05-03 14:51:23:864
1.3976;-2.2535;-9.3889;78559;2021-05-03 14:51:23:914
1.3976;-2.2535;-9.3889;78609;2021-05-03 14:51:23:964
1.4407;-2.2464;-9.4032;78658;2021-05-03 14:51:24:013
1.4407;-2.2464;-9.4032;78709;2021-05-03 14:51:24:064
1.3761;-2.2799;-9.4104;78759;2021-05-03 14:51:24:114
1.3761;-2.2799;-9.4104;78808;2021-05-03 14:51:24:163
1.4311;-2.2847;-9.4176;78859;2021-05-03 14:51:24:214
1.4311;-2.2847;-9.4176;78909;2021-05-03 14:51:24:264
1.3856;-2.2679;-9.5086;78958;2021-05-03 14:51:24:313
1.3856;-2.2679;-9.5086;79009;2021-05-03 14:51:24:364
1.3952;-2.2703;-9.4463;79059;2021-05-03 14:51:24:414
1.3952;-2.2703;-9.4463;79108;2021-05-03 14:51:24:463
1.3785;-2.2416;-9.4822;79159;2021-05-03 14:51:24:514
1.3785;-2.2416;-9.4822;79208;2021-05-03 14:51:24:563
1.3354;-2.2535;-9.4535;79258;2021-05-03 14:51:24:613
1.3354;-2.2535;-9.4535;79309;2021-05-03 14:51:24:664
1.424;-2.3158;-9.4272;79359;2021-05-03 14:51:24:714
1.424;-2.3158;-9.4272;79409;2021-05-03 14:51:24:764
1.424;-2.3158;-9.4272;79458;2021-05-03 14:51:24:813
1.4311;-2.2799;-9.3793;79509;2021-05-03 14:51:24:864
1.4216;-2.2799;-9.4152;79559;2021-05-03 14:51:24:914
1.4216;-2.2799;-9.4152;79609;2021-05-03 14:51:24:964
1.3497;-2.2583;-9.4631;79659;2021-05-03 14:51:25:014
1.3497;-2.2583;-9.4631;79709;2021-05-03 14:51:25:064
1.3497;-2.2583;-9.4631;79758;2021-05-03 14:51:25:113
1.3785;-2.2895;-9.3936;79809;2021-05-03 14:51:25:164
1.3785;-2.2895;-9.3936;79859;2021-05-03 14:51:25:214
1.3976;-2.3038;-9.4774;79909;2021-05-03 14:51:25:264
1.3809;-2.2679;-9.4727;79959;2021-05-03 14:51:25:314
1.3809;-2.2679;-9.4727;80009;2021-05-03 14:51:25:364
1.3809;-2.2679;-9.4727;80059;2021-05-03 14:51:25:414
1.3904;-2.2511;-9.487;80109;2021-05-03 14:51:25:464
1.3904;-2.2511;-9.487;80159;2021-05-03 14:51:25:514
1.3473;-2.2583;-9.5086;80208;2021-05-03 14:51:25:563
1.3473;-2.2583;-9.5086;80259;2021-05-03 14:51:25:614
1.3833;-2.2344;-9.4798;80309;2021-05-03 14:51:25:664
1.3833;-2.2344;-9.4798;80359;2021-05-03 14:51:25:714
1.4287;-2.2488;-9.4248;80409;2021-05-03 14:51:25:764
1.4287;-2.2488;-9.4248;80459;2021-05-03 14:51:25:814
1.424;-2.2488;-9.4104;80508;2021-05-03 14:51:25:863
1.424;-2.2488;-9.4104;80559;2021-05-03 14:51:25:914
1.4048;-2.2464;-9.4511;80609;2021-05-03 14:51:25:964
1.4048;-2.2464;-9.4511;80659;2021-05-03 14:51:26:014
1.4144;-2.2416;-9.4487;80709;2021-05-03 14:51:26:064
1.4144;-2.2416;-9.4487;80759;2021-05-03 14:51:26:114
1.3306;-2.2655;-9.3841;80809;2021-05-03 14:51:26:164
1.3306;-2.2655;-9.3841;80859;2021-05-03 14:51:26:214
1.4024;-2.2535;-9.4224;80909;2021-05-03 14:51:26:264
1.4024;-2.2535;-9.4224;80959;2021-05-03 14:51:26:314
1.3641;-2.2392;-9.4391;81009;2021-05-03 14:51:26:364
1.3641;-2.2392;-9.4391;81059;2021-05-03 14:51:26:414
1.4407;-2.2272;-9.4104;81109;2021-05-03 14:51:26:464
1.4407;-2.2272;-9.4104;81159;2021-05-03 14:51:26:514
1.4096;-2.2416;-9.4104;81209;2021-05-03 14:51:26:564
1.4096;-2.2416;-9.4104;81259;2021-05-03 14:51:26:614
1.3617;-2.299;-9.4751;81308;2021-05-03 14:51:26:663
1.3617;-2.299;-9.4751;81359;2021-05-03 14:51:26:714
1.3737;-2.2104;-9.4583;81409;2021-05-03 14:51:26:764
1.3737;-2.2104;-9.4583;81459;2021-05-03 14:51:26:814
1.3569;-2.2607;-9.4487;81508;2021-05-03 14:51:26:863
1.3569;-2.2607;-9.4487;81559;2021-05-03 14:51:26:914
1.3809;-2.2464;-9.4391;81609;2021-05-03 14:51:26:964
1.3809;-2.2464;-9.4391;81659;2021-05-03 14:51:27:014
1.4096;-2.2871;-9.4176;81709;2021-05-03 14:51:27:064
1.4096;-2.2871;-9.4176;81759;2021-05-03 14:51:27:114
1.3856;-2.3182;-9.4415;81809;2021-05-03 14:51:27:164
1.3856;-2.3182;-9.4415;81859;2021-05-03 14:51:27:214
1.3641;-2.2081;-9.4439;81908;2021-05-03 14:51:27:263
1.3641;-2.2081;-9.4439;81958;2021-05-03 14:51:27:313
1.3809;-2.2799;-9.4511;82009;2021-05-03 14:51:27:364
1.3809;-2.2799;-9.4511;82059;2021-05-03 14:51:27:414
1.4072;-2.2703;-9.4391;82109;2021-05-03 14:51:27:464
1.4072;-2.2703;-9.4391;82158;2021-05-03 14:51:27:513
1.3856;-2.2464;-9.4655;82209;2021-05-03 14:51:27:564
1.3856;-2.2464;-9.4655;82259;2021-05-03 14:51:27:614
1.3593;-2.2823;-9.4511;82309;2021-05-03 14:51:27:664
1.3593;-2.2823;-9.4511;82359;2021-05-03 14:51:27:714
1.3856;-2.2368;-9.4463;82409;2021-05-03 14:51:27:764
1.3856;-2.2368;-9.4463;82459;2021-05-03 14:51:27:814
1.3856;-2.2272;-9.432;82508;2021-05-03 14:51:27:863
1.3856;-2.2272;-9.432;82559;2021-05-03 14:51:27:914
1.3928;-2.2392;-9.4679;82609;2021-05-03 14:51:27:964
1.3928;-2.2392;-9.4679;82659;2021-05-03 14:51:28:014
1.3665;-2.2535;-9.4439;82709;2021-05-03 14:51:28:064
1.3665;-2.2535;-9.4439;82759;2021-05-03 14:51:28:114
1.4;-2.2631;-9.4224;82808;2021-05-03 14:51:28:163
1.4;-2.2631;-9.4224;82859;2021-05-03 14:51:28:214
1.4096;-2.2751;-9.4607;82909;2021-05-03 14:51:28:264
1.4096;-2.2751;-9.4607;82959;2021-05-03 14:51:28:314
1.3976;-2.2464;-9.4008;83008;2021-05-03 14:51:28:363
1.3976;-2.2464;-9.4008;83058;2021-05-03 14:51:28:413
1.3952;-2.2416;-9.4152;83109;2021-05-03 14:51:28:464
1.3952;-2.2416;-9.4152;83159;2021-05-03 14:51:28:514
1.4407;-2.3062;-9.3649;83208;2021-05-03 14:51:28:563
1.4407;-2.3062;-9.3649;83258;2021-05-03 14:51:28:613
1.4096;-2.2511;-9.4511;83309;2021-05-03 14:51:28:664
1.4096;-2.2511;-9.4511;83359;2021-05-03 14:51:28:714
1.4;-2.2535;-9.3625;83408;2021-05-03 14:51:28:763
1.4;-2.2535;-9.3625;83458;2021-05-03 14:51:28:813
1.3928;-2.244;-9.42;83508;2021-05-03 14:51:28:863
1.3928;-2.244;-9.42;83558;2021-05-03 14:51:28:913
1.3761;-2.2655;-9.4774;83609;2021-05-03 14:51:28:964
1.3761;-2.2655;-9.4774;83659;2021-05-03 14:51:29:014
1.3593;-2.2703;-9.4607;83709;2021-05-03 14:51:29:064
1.3593;-2.2703;-9.4607;83759;2021-05-03 14:51:29:114
1.3737;-2.2511;-9.4391;83808;2021-05-03 14:51:29:163
1.3737;-2.2511;-9.4391;83858;2021-05-03 14:51:29:213
1.3521;-2.244;-9.4463;83908;2021-05-03 14:51:29:263
1.3521;-2.244;-9.4463;83959;2021-05-03 14:51:29:314
1.479;-2.3038;-9.4415;84009;2021-05-03 14:51:29:364
1.479;-2.3038;-9.4415;84059;2021-05-03 14:51:29:414
1.3593;-2.2152;-9.396;84108;2021-05-03 14:51:29:463
1.3593;-2.2152;-9.396;84158;2021-05-03 14:51:29:513
1.3809;-2.2631;-9.4751;84209;2021-05-03 14:51:29:564
1.3809;-2.2631;-9.4751;84259;2021-05-03 14:51:29:614
1.412;-2.2655;-9.4655;84309;2021-05-03 14:51:29:664
1.412;-2.2655;-9.4655;84359;2021-05-03 14:51:29:714
1.3497;-2.2344;-9.4559;84408;2021-05-03 14:51:29:763
1.3497;-2.2344;-9.4559;84458;2021-05-03 14:51:29:813
1.3713;-2.2631;-9.4511;84509;2021-05-03 14:51:29:864
1.3713;-2.2631;-9.4511;84559;2021-05-03 14:51:29:914
1.4096;-2.2248;-9.4391;84609;2021-05-03 14:51:29:964
1.4096;-2.2248;-9.4391;84659;2021-05-03 14:51:30:014
1.3234;-2.1841;-9.4296;84709;2021-05-03 14:51:30:064
1.3234;-2.1841;-9.4296;84759;2021-05-03 14:51:30:114
1.412;-2.2823;-9.4104;84809;2021-05-03 14:51:30:164
1.412;-2.2823;-9.4104;84859;2021-05-03 14:51:30:214
1.3042;-2.2128;-9.5205;84908;2021-05-03 14:51:30:263
1.3042;-2.2128;-9.5205;84959;2021-05-03 14:51:30:314
1.3258;-2.2344;-9.4798;85009;2021-05-03 14:51:30:364
1.3258;-2.2344;-9.4798;85059;2021-05-03 14:51:30:414
1.3617;-2.2368;-9.4439;85109;2021-05-03 14:51:30:464
1.3617;-2.2368;-9.4439;85159;2021-05-03 14:51:30:514
1.3713;-2.2679;-9.4559;85209;2021-05-03 14:51:30:564
1.3713;-2.2679;-9.4559;85259;2021-05-03 14:51:30:614
1.3641;-2.2823;-9.4487;85309;2021-05-03 14:51:30:664
1.3641;-2.2823;-9.4487;85359;2021-05-03 14:51:30:714
1.3713;-2.2583;-9.4607;85409;2021-05-03 14:51:30:764
1.3713;-2.2583;-9.4607;85459;2021-05-03 14:51:30:814
1.3689;-2.2559;-9.4631;85508;2021-05-03 14:51:30:863
1.3689;-2.2559;-9.4631;85558;2021-05-03 14:51:30:913
1.3425;-2.2775;-9.4583;85609;2021-05-03 14:51:30:964
1.3425;-2.2775;-9.4583;85659;2021-05-03 14:51:31:014
1.3234;-2.1817;-9.4727;85708;2021-05-03 14:51:31:063
1.3234;-2.1817;-9.4727;85759;2021-05-03 14:51:31:114
1.3761;-2.2823;-9.4008;85809;2021-05-03 14:51:31:164
1.3761;-2.2823;-9.4008;85859;2021-05-03 14:51:31:214
1.3976;-2.2847;-9.4679;85909;2021-05-03 14:51:31:264
1.3976;-2.2847;-9.4679;85959;2021-05-03 14:51:31:314
1.321;-2.1578;-9.4296;86008;2021-05-03 14:51:31:363
1.321;-2.1578;-9.4296;86059;2021-05-03 14:51:31:414
1.3785;-2.2104;-9.3553;86109;2021-05-03 14:51:31:464
1.3785;-2.2104;-9.3553;86159;2021-05-03 14:51:31:514
1.3258;-2.2128;-9.4032;86209;2021-05-03 14:51:31:564
1.3258;-2.2128;-9.4032;86259;2021-05-03 14:51:31:614
1.4024;-2.3254;-9.2955;86309;2021-05-03 14:51:31:664
1.4024;-2.3254;-9.2955;86358;2021-05-03 14:51:31:713
1.4359;-2.3062;-9.4391;86409;2021-05-03 14:51:31:764
1.4359;-2.3062;-9.4391;86459;2021-05-03 14:51:31:814
1.3138;-2.2511;-9.3122;86509;2021-05-03 14:51:31:864
1.3138;-2.2511;-9.3122;86559;2021-05-03 14:51:31:914
1.4407;-2.1841;-9.4607;86609;2021-05-03 14:51:31:964
1.4407;-2.1841;-9.4607;86659;2021-05-03 14:51:32:014
1.558;-2.3445;-9.4128;86709;2021-05-03 14:51:32:064
1.558;-2.3445;-9.4128;86759;2021-05-03 14:51:32:114
1.5485;-2.3996;-9.4152;86809;2021-05-03 14:51:32:164
1.5485;-2.3996;-9.4152;86859;2021-05-03 14:51:32:214
1.4431;-2.5456;-9.4511;86909;2021-05-03 14:51:32:264
1.4431;-2.5456;-9.4511;86958;2021-05-03 14:51:32:313
1.6849;-2.5624;-9.3242;87009;2021-05-03 14:51:32:364
1.6849;-2.5624;-9.3242;87059;2021-05-03 14:51:32:414
1.819;-2.5552;-9.3122;87109;2021-05-03 14:51:32:464
1.819;-2.5552;-9.3122;87159;2021-05-03 14:51:32:514
1.6682;-2.548;-9.2739;87208;2021-05-03 14:51:32:563
1.6682;-2.548;-9.2739;87258;2021-05-03 14:51:32:613
1.7041;-2.414;-9.4966;87309;2021-05-03 14:51:32:664
1.7041;-2.414;-9.4966;87359;2021-05-03 14:51:32:714
1.8214;-2.5839;-9.2644;87408;2021-05-03 14:51:32:763
1.8214;-2.5839;-9.2644;87458;2021-05-03 14:51:32:813
1.6179;-2.6725;-9.2931;87509;2021-05-03 14:51:32:864
1.6179;-2.6725;-9.2931;87558;2021-05-03 14:51:32:913
1.8405;-2.6318;-9.3266;87609;2021-05-03 14:51:32:964
1.8405;-2.6318;-9.3266;87659;2021-05-03 14:51:33:014
1.7089;-2.5337;-9.2141;87709;2021-05-03 14:51:33:064
1.7089;-2.5337;-9.2141;87759;2021-05-03 14:51:33:114
1.7208;-2.6175;-9.3601;87808;2021-05-03 14:51:33:163
1.7208;-2.6175;-9.3601;87859;2021-05-03 14:51:33:214
1.728;-2.56;-9.3266;87909;2021-05-03 14:51:33:264
1.728;-2.56;-9.3266;87959;2021-05-03 14:51:33:314
1.7424;-2.5432;-9.2979;88009;2021-05-03 14:51:33:364
1.7424;-2.5432;-9.2979;88059;2021-05-03 14:51:33:414
1.5748;-2.5337;-9.2835;88108;2021-05-03 14:51:33:463
1.5748;-2.5337;-9.2835;88158;2021-05-03 14:51:33:513
1.5461;-2.4786;-9.4224;88208;2021-05-03 14:51:33:563
1.5461;-2.4786;-9.4224;88259;2021-05-03 14:51:33:614
1.6897;-2.5552;-9.2931;88309;2021-05-03 14:51:33:664
1.6897;-2.5552;-9.2931;88359;2021-05-03 14:51:33:714
1.6322;-2.4786;-9.329;88409;2021-05-03 14:51:33:764
1.6322;-2.4786;-9.329;88459;2021-05-03 14:51:33:814
1.6562;-2.6151;-9.3601;88509;2021-05-03 14:51:33:864
1.6562;-2.6151;-9.3601;88558;2021-05-03 14:51:33:913
1.6658;-2.5672;-9.3099;88609;2021-05-03 14:51:33:964
1.6658;-2.5672;-9.3099;88659;2021-05-03 14:51:34:014
1.6729;-2.5456;-9.3458;88709;2021-05-03 14:51:34:064
1.6729;-2.5456;-9.3458;88759;2021-05-03 14:51:34:114
1.5915;-2.5504;-9.3075;88809;2021-05-03 14:51:34:164
1.5915;-2.5504;-9.3075;88858;2021-05-03 14:51:34:213
1.5868;-2.5385;-9.3673;88909;2021-05-03 14:51:34:264
1.5868;-2.5385;-9.3673;88959;2021-05-03 14:51:34:314
1.582;-2.5193;-9.3865;89009;2021-05-03 14:51:34:364
1.582;-2.5193;-9.3865;89058;2021-05-03 14:51:34:413
1.6729;-2.4882;-9.3697;89109;2021-05-03 14:51:34:464
1.6729;-2.4882;-9.3697;89158;2021-05-03 14:51:34:513
1.5604;-2.4068;-9.3601;89209;2021-05-03 14:51:34:564
1.5604;-2.4068;-9.3601;89259;2021-05-03 14:51:34:614
1.5437;-2.3876;-9.3577;89309;2021-05-03 14:51:34:664
1.5437;-2.3876;-9.3577;89359;2021-05-03 14:51:34:714
1.5413;-2.4235;-9.3338;89408;2021-05-03 14:51:34:763
1.5413;-2.4235;-9.3338;89459;2021-05-03 14:51:34:814
1.5221;-2.5073;-9.3099;89509;2021-05-03 14:51:34:864
1.5221;-2.5073;-9.3099;89559;2021-05-03 14:51:34:914
1.4886;-2.4403;-9.3841;89609;2021-05-03 14:51:34:964
1.4886;-2.4403;-9.3841;89659;2021-05-03 14:51:35:014
1.5101;-2.2847;-9.4248;89709;2021-05-03 14:51:35:064
1.5101;-2.2847;-9.4248;89759;2021-05-03 14:51:35:114
1.4934;-2.4403;-9.3625;89808;2021-05-03 14:51:35:163
1.4934;-2.4403;-9.3625;89859;2021-05-03 14:51:35:214
1.5772;-2.3589;-9.4176;89909;2021-05-03 14:51:35:264
1.5772;-2.3589;-9.4176;89959;2021-05-03 14:51:35:314
1.4958;-2.3158;-9.4344;90009;2021-05-03 14:51:35:364
1.4958;-2.3158;-9.4344;90059;2021-05-03 14:51:35:414
1.2731;-2.4403;-9.4344;90109;2021-05-03 14:51:35:464
1.2731;-2.4403;-9.4344;90159;2021-05-03 14:51:35:514
1.388;-2.3421;-9.4703;90209;2021-05-03 14:51:35:564
1.388;-2.3421;-9.4703;90259;2021-05-03 14:51:35:614
1.4383;-2.2679;-9.3769;90308;2021-05-03 14:51:35:663
1.4383;-2.2679;-9.3769;90358;2021-05-03 14:51:35:713
1.5101;-2.4092;-9.4224;90408;2021-05-03 14:51:35:763
1.5101;-2.4092;-9.4224;90459;2021-05-03 14:51:35:814
1.4216;-2.3613;-9.3865;90509;2021-05-03 14:51:35:864
1.4216;-2.3613;-9.3865;90559;2021-05-03 14:51:35:914
1.4168;-2.3278;-9.3841;90609;2021-05-03 14:51:35:964
1.4168;-2.3278;-9.3841;90659;2021-05-03 14:51:36:014
1.5173;-2.3278;-9.4535;90709;2021-05-03 14:51:36:064
1.5173;-2.3278;-9.4535;90759;2021-05-03 14:51:36:114
1.4431;-2.3804;-9.3793;90808;2021-05-03 14:51:36:163
1.4431;-2.3804;-9.3793;90859;2021-05-03 14:51:36:214
1.467;-2.3397;-9.3649;90909;2021-05-03 14:51:36:264
1.467;-2.3397;-9.3649;90959;2021-05-03 14:51:36:314
1.4407;-2.3062;-9.3865;91009;2021-05-03 14:51:36:364
1.4407;-2.3062;-9.3865;91059;2021-05-03 14:51:36:414
1.3904;-2.3158;-9.4272;91108;2021-05-03 14:51:36:463
1.3904;-2.3158;-9.4272;91159;2021-05-03 14:51:36:514
1.4168;-2.3206;-9.4224;91209;2021-05-03 14:51:36:564
1.4168;-2.3206;-9.4224;91259;2021-05-03 14:51:36:614
1.491;-2.3469;-9.3482;91308;2021-05-03 14:51:36:663
1.491;-2.3469;-9.3482;91359;2021-05-03 14:51:36:714
1.4216;-2.3541;-9.3577;91409;2021-05-03 14:51:36:764
1.4216;-2.3541;-9.3577;91459;2021-05-03 14:51:36:814
1.412;-2.3445;-9.4559;91508;2021-05-03 14:51:36:863
1.412;-2.3445;-9.4559;91558;2021-05-03 14:51:36:913
1.4694;-2.3613;-9.3984;91609;2021-05-03 14:51:36:964
1.4694;-2.3613;-9.3984;91659;2021-05-03 14:51:37:014
1.4216;-2.3637;-9.4463;91709;2021-05-03 14:51:37:064
1.4216;-2.3637;-9.4463;91758;2021-05-03 14:51:37:113
1.4168;-2.311;-9.4631;91808;2021-05-03 14:51:37:163
1.4168;-2.311;-9.4631;91859;2021-05-03 14:51:37:214
1.3976;-2.3206;-9.4367;91909;2021-05-03 14:51:37:264
1.3976;-2.3206;-9.4367;91959;2021-05-03 14:51:37:314
1.4599;-2.3349;-9.4296;92008;2021-05-03 14:51:37:363
1.4599;-2.3349;-9.4296;92058;2021-05-03 14:51:37:413
1.4623;-2.3373;-9.3793;92108;2021-05-03 14:51:37:463
1.4623;-2.3373;-9.3793;92159;2021-05-03 14:51:37:514
1.491;-2.3948;-9.3553;92209;2021-05-03 14:51:37:564
1.491;-2.3948;-9.3553;92259;2021-05-03 14:51:37:614
1.5077;-2.3924;-9.4296;92309;2021-05-03 14:51:37:664
1.5077;-2.3924;-9.4296;92358;2021-05-03 14:51:37:713
1.424;-2.3421;-9.432;92409;2021-05-03 14:51:37:764
1.424;-2.3421;-9.432;92459;2021-05-03 14:51:37:814
1.3641;-2.3421;-9.511;92509;2021-05-03 14:51:37:864
1.3641;-2.3421;-9.511;92558;2021-05-03 14:51:37:913
1.4287;-2.323;-9.3984;92609;2021-05-03 14:51:37:964
1.4287;-2.323;-9.3984;92659;2021-05-03 14:51:38:014
1.4958;-2.3445;-9.4128;92709;2021-05-03 14:51:38:064
1.4958;-2.3445;-9.4128;92758;2021-05-03 14:51:38:113
1.4072;-2.3421;-9.4463;92809;2021-05-03 14:51:38:164
1.4072;-2.3421;-9.4463;92859;2021-05-03 14:51:38:214
1.424;-2.2727;-9.3913;92909;2021-05-03 14:51:38:264
1.424;-2.2727;-9.3913;92959;2021-05-03 14:51:38:314
1.412;-2.3134;-9.4966;93009;2021-05-03 14:51:38:364
1.412;-2.3134;-9.4966;93059;2021-05-03 14:51:38:414
1.4216;-2.3373;-9.4846;93109;2021-05-03 14:51:38:464
1.4216;-2.3373;-9.4846;93159;2021-05-03 14:51:38:514
1.4383;-2.3158;-9.4822;93209;2021-05-03 14:51:38:564
1.4383;-2.3158;-9.4822;93259;2021-05-03 14:51:38:614
1.4311;-2.3134;-9.4415;93309;2021-05-03 14:51:38:664
1.4311;-2.3134;-9.4415;93359;2021-05-03 14:51:38:714
1.4694;-2.3493;-9.4152;93408;2021-05-03 14:51:38:763
1.4694;-2.3493;-9.4152;93459;2021-05-03 14:51:38:814
1.5077;-2.2895;-9.4008;93509;2021-05-03 14:51:38:864
1.5077;-2.2895;-9.4008;93559;2021-05-03 14:51:38:914
1.5173;-2.3756;-9.4128;93609;2021-05-03 14:51:38:964
1.5173;-2.3756;-9.4128;93658;2021-05-03 14:51:39:013
1.3521;-2.3733;-9.4511;93708;2021-05-03 14:51:39:063
1.3521;-2.3733;-9.4511;93759;2021-05-03 14:51:39:114
1.5748;-2.4116;-9.4056;93808;2021-05-03 14:51:39:163
1.5748;-2.4116;-9.4056;93859;2021-05-03 14:51:39:214
1.5676;-2.378;-9.3099;93909;2021-05-03 14:51:39:264
1.5676;-2.378;-9.3099;93959;2021-05-03 14:51:39:314
1.4742;-2.5672;-9.4176;94009;2021-05-03 14:51:39:364
1.4742;-2.5672;-9.4176;94059;2021-05-03 14:51:39:414
1.4479;-2.402;-9.3697;94109;2021-05-03 14:51:39:464
1.4479;-2.402;-9.3697;94159;2021-05-03 14:51:39:514
1.5341;-2.3828;-9.3865;94209;2021-05-03 14:51:39:564
1.5341;-2.3828;-9.3865;94259;2021-05-03 14:51:39:614
1.467;-2.4451;-9.396;94309;2021-05-03 14:51:39:664
1.467;-2.4451;-9.396;94359;2021-05-03 14:51:39:714
1.4455;-2.3828;-9.4056;94409;2021-05-03 14:51:39:764
1.4455;-2.3828;-9.4056;94458;2021-05-03 14:51:39:813
1.491;-2.3756;-9.3793;94508;2021-05-03 14:51:39:863
1.491;-2.3756;-9.3793;94558;2021-05-03 14:51:39:913
1.4144;-2.3661;-9.4056;94609;2021-05-03 14:51:39:964
1.4144;-2.3661;-9.4056;94659;2021-05-03 14:51:40:014
1.4766;-2.4187;-9.3769;94709;2021-05-03 14:51:40:064
1.4766;-2.4187;-9.3769;94759;2021-05-03 14:51:40:114
1.5245;-2.3278;-9.3386;94809;2021-05-03 14:51:40:164
1.5245;-2.3278;-9.3386;94858;2021-05-03 14:51:40:213
1.4623;-2.5265;-9.2907;94908;2021-05-03 14:51:40:263
1.4623;-2.5265;-9.2907;94959;2021-05-03 14:51:40:314
1.3617;-2.2559;-9.4104;95009;2021-05-03 14:51:40:364
1.3617;-2.2559;-9.4104;95059;2021-05-03 14:51:40:414
1.5413;-2.4451;-9.3913;95109;2021-05-03 14:51:40:464
1.5413;-2.4451;-9.3913;95159;2021-05-03 14:51:40:514
1.5413;-2.2104;-9.2811;95209;2021-05-03 14:51:40:564
1.5413;-2.2104;-9.2811;95259;2021-05-03 14:51:40:614
1.5125;-2.4714;-9.4152;95309;2021-05-03 14:51:40:664
1.5125;-2.4714;-9.4152;95358;2021-05-03 14:51:40:713
1.4958;-2.2966;-9.2979;95408;2021-05-03 14:51:40:763
1.4958;-2.2966;-9.2979;95459;2021-05-03 14:51:40:814
1.5628;-2.1793;-9.4152;95509;2021-05-03 14:51:40:864
1.5628;-2.1793;-9.4152;95559;2021-05-03 14:51:40:914
1.6011;-2.4427;-9.3793;95609;2021-05-03 14:51:40:964
1.6011;-2.4427;-9.3793;95659;2021-05-03 14:51:41:014
1.5293;-2.5169;-9.3865;95709;2021-05-03 14:51:41:064
1.5293;-2.5169;-9.3865;95759;2021-05-03 14:51:41:114
1.6011;-2.4068;-9.2883;95809;2021-05-03 14:51:41:164
1.6011;-2.4068;-9.2883;95859;2021-05-03 14:51:41:214
1.4958;-2.3014;-9.4703;95909;2021-05-03 14:51:41:264
1.4958;-2.3014;-9.4703;95958;2021-05-03 14:51:41:313
1.1175;-2.6127;-9.4128;96009;2021-05-03 14:51:41:364
1.1175;-2.6127;-9.4128;96059;2021-05-03 14:51:41:414
1.2348;-2.5552;-9.3577;96109;2021-05-03 14:51:41:464
1.2348;-2.5552;-9.3577;96159;2021-05-03 14:51:41:514
1.3186;-2.4906;-9.4774;96209;2021-05-03 14:51:41:564
1.3186;-2.4906;-9.4774;96259;2021-05-03 14:51:41:614
1.5101;-2.2942;-9.4583;96309;2021-05-03 14:51:41:664
1.5101;-2.2942;-9.4583;96359;2021-05-03 14:51:41:714
1.6418;-2.4355;-9.3697;96409;2021-05-03 14:51:41:764
1.6418;-2.4355;-9.3697;96458;2021-05-03 14:51:41:813
1.5604;-2.4786;-9.4583;96508;2021-05-03 14:51:41:863
1.5604;-2.4786;-9.4583;96559;2021-05-03 14:51:41:914
1.4;-2.299;-9.3721;96609;2021-05-03 14:51:41:964
1.4;-2.299;-9.3721;96659;2021-05-03 14:51:42:014
1.4216;-2.299;-9.3242;96709;2021-05-03 14:51:42:064
1.4216;-2.299;-9.3242;96758;2021-05-03 14:51:42:113
1.4479;-2.3086;-9.3769;96809;2021-05-03 14:51:42:164
1.4479;-2.3086;-9.3769;96859;2021-05-03 14:51:42:214
1.3665;-2.3445;-9.3936;96908;2021-05-03 14:51:42:263
1.3665;-2.3445;-9.3936;96959;2021-05-03 14:51:42:314
1.3617;-2.4235;-9.4104;97009;2021-05-03 14:51:42:364
1.3617;-2.4235;-9.4104;97059;2021-05-03 14:51:42:414
1.3617;-2.3373;-9.3649;97109;2021-05-03 14:51:42:464
1.3617;-2.3373;-9.3649;97158;2021-05-03 14:51:42:513
1.3952;-2.4618;-9.3793;97208;2021-05-03 14:51:42:563
1.3952;-2.4618;-9.3793;97259;2021-05-03 14:51:42:614
1.3545;-2.2918;-9.3817;97309;2021-05-03 14:51:42:664
1.3545;-2.2918;-9.3817;97359;2021-05-03 14:51:42:714
1.4192;-2.3038;-9.3841;97408;2021-05-03 14:51:42:763
1.4192;-2.3038;-9.3841;97459;2021-05-03 14:51:42:814
1.424;-2.4283;-9.3482;97509;2021-05-03 14:51:42:864
1.424;-2.4283;-9.3482;97559;2021-05-03 14:51:42:914
1.3545;-2.4379;-9.4344;97609;2021-05-03 14:51:42:964
1.3545;-2.4379;-9.4344;97658;2021-05-03 14:51:43:013
1.3833;-2.3326;-9.4176;97708;2021-05-03 14:51:43:063
1.3833;-2.3326;-9.4176;97758;2021-05-03 14:51:43:113
1.388;-2.4116;-9.4152;97808;2021-05-03 14:51:43:163
1.388;-2.4116;-9.4152;97859;2021-05-03 14:51:43:214
1.3904;-2.3924;-9.4272;97909;2021-05-03 14:51:43:264
1.3904;-2.3924;-9.4272;97959;2021-05-03 14:51:43:314
1.4551;-2.457;-9.4008;98009;2021-05-03 14:51:43:364
1.4551;-2.457;-9.4008;98059;2021-05-03 14:51:43:414
1.4072;-2.414;-9.5924;98108;2021-05-03 14:51:43:463
1.4072;-2.414;-9.5924;98159;2021-05-03 14:51:43:514
1.3258;-2.3014;-9.42;98209;2021-05-03 14:51:43:564
1.3258;-2.3014;-9.42;98259;2021-05-03 14:51:43:614
1.4024;-2.3685;-9.4439;98309;2021-05-03 14:51:43:664
1.4024;-2.3685;-9.4439;98359;2021-05-03 14:51:43:714
1.4024;-2.3685;-9.4439;98408;2021-05-03 14:51:43:763
1.4503;-2.3589;-9.3769;98459;2021-05-03 14:51:43:814
1.4096;-2.4116;-9.3434;98509;2021-05-03 14:51:43:864
1.4096;-2.4116;-9.3434;98559;2021-05-03 14:51:43:914
1.4096;-2.4116;-9.3434;98608;2021-05-03 14:51:43:963
1.424;-2.4547;-9.4032;98659;2021-05-03 14:51:44:014
1.424;-2.4547;-9.4032;98709;2021-05-03 14:51:44:064
1.2085;-2.3062;-9.3051;98759;2021-05-03 14:51:44:114
1.2085;-2.3062;-9.3051;98809;2021-05-03 14:51:44:164
1.491;-2.3254;-9.3673;98859;2021-05-03 14:51:44:214
1.491;-2.3254;-9.3673;98909;2021-05-03 14:51:44:264
1.5724;-2.4355;-9.3697;98959;2021-05-03 14:51:44:314
1.5724;-2.4355;-9.3697;99008;2021-05-03 14:51:44:363
1.2755;-2.4882;-9.3841;99059;2021-05-03 14:51:44:414
1.2755;-2.4882;-9.3841;99109;2021-05-03 14:51:44:464
1.1941;-2.3733;-9.4439;99158;2021-05-03 14:51:44:513
1.1941;-2.3733;-9.4439;99209;2021-05-03 14:51:44:564
1.5293;-2.4618;-9.3673;99259;2021-05-03 14:51:44:614
1.5293;-2.4618;-9.3673;99309;2021-05-03 14:51:44:664
1.3928;-2.4092;-9.3721;99358;2021-05-03 14:51:44:713
1.3928;-2.4092;-9.3721;99409;2021-05-03 14:51:44:764
1.3952;-2.4379;-9.4391;99459;2021-05-03 14:51:44:814
1.3952;-2.4379;-9.4391;99509;2021-05-03 14:51:44:864
1.4048;-2.378;-9.42;99559;2021-05-03 14:51:44:914
1.4048;-2.378;-9.42;99609;2021-05-03 14:51:44:964
1.3809;-2.3876;-9.3984;99658;2021-05-03 14:51:45:013
1.3809;-2.3876;-9.3984;99708;2021-05-03 14:51:45:063
1.3665;-2.4355;-9.4152;99759;2021-05-03 14:51:45:114
1.3665;-2.4355;-9.4152;99809;2021-05-03 14:51:45:164
1.3856;-2.4187;-9.4248;99859;2021-05-03 14:51:45:214
1.3856;-2.4187;-9.4248;99909;2021-05-03 14:51:45:264
1.4;-2.414;-9.3817;99958;2021-05-03 14:51:45:313
1.4;-2.414;-9.3817;100009;2021-05-03 14:51:45:364
1.3665;-2.4044;-9.4176;100058;2021-05-03 14:51:45:413
1.3665;-2.4044;-9.4176;100108;2021-05-03 14:51:45:463
1.3904;-2.4211;-9.3936;100159;2021-05-03 14:51:45:514
1.3904;-2.4211;-9.3936;100209;2021-05-03 14:51:45:564
1.4216;-2.39;-9.42;100259;2021-05-03 14:51:45:614
1.4216;-2.39;-9.42;100309;2021-05-03 14:51:45:664
1.3425;-2.4954;-9.3625;100359;2021-05-03 14:51:45:714
1.3425;-2.4954;-9.3625;100409;2021-05-03 14:51:45:764
1.4623;-2.3709;-9.4918;100459;2021-05-03 14:51:45:814
1.4623;-2.3709;-9.4918;100509;2021-05-03 14:51:45:864
1.3186;-2.4044;-9.3314;100558;2021-05-03 14:51:45:913
1.3186;-2.4044;-9.3314;100609;2021-05-03 14:51:45:964
1.4311;-2.4379;-9.4032;100659;2021-05-03 14:51:46:014
1.4311;-2.4379;-9.4032;100709;2021-05-03 14:51:46:064
1.4144;-2.3972;-9.4152;100759;2021-05-03 14:51:46:114
1.4144;-2.3972;-9.4152;100809;2021-05-03 14:51:46:164
1.3713;-2.4116;-9.3697;100858;2021-05-03 14:51:46:213
1.3713;-2.4116;-9.3697;100908;2021-05-03 14:51:46:263
1.4527;-2.402;-9.408;100959;2021-05-03 14:51:46:314
1.4527;-2.402;-9.408;101009;2021-05-03 14:51:46:364
1.3856;-2.4547;-9.4224;101058;2021-05-03 14:51:46:413
1.3856;-2.4547;-9.4224;101109;2021-05-03 14:51:46:464
1.4048;-2.378;-9.3793;101159;2021-05-03 14:51:46:514
1.4048;-2.378;-9.3793;101208;2021-05-03 14:51:46:563
1.3641;-2.4475;-9.396;101258;2021-05-03 14:51:46:613
1.3641;-2.4475;-9.396;101308;2021-05-03 14:51:46:663
1.321;-2.4714;-9.317;101359;2021-05-03 14:51:46:714
1.321;-2.4714;-9.317;101409;2021-05-03 14:51:46:764
1.4623;-2.3565;-9.4415;101459;2021-05-03 14:51:46:814
1.4623;-2.3565;-9.4415;101509;2021-05-03 14:51:46:864
1.3042;-2.4499;-9.3793;101559;2021-05-03 14:51:46:914
1.3042;-2.4499;-9.3793;101609;2021-05-03 14:51:46:964
1.4216;-2.4499;-9.4056;101658;2021-05-03 14:51:47:013
1.4216;-2.4499;-9.4056;101708;2021-05-03 14:51:47:063
1.4096;-2.4044;-9.3745;101758;2021-05-03 14:51:47:113
1.4096;-2.4044;-9.3745;101809;2021-05-03 14:51:47:164
1.3545;-2.4116;-9.4272;101859;2021-05-03 14:51:47:214
1.3545;-2.4116;-9.4272;101909;2021-05-03 14:51:47:264
1.3593;-2.39;-9.4224;101959;2021-05-03 14:51:47:314
1.3593;-2.39;-9.4224;102009;2021-05-03 14:51:47:364
1.4431;-2.3972;-9.3027;102059;2021-05-03 14:51:47:414
1.4431;-2.3972;-9.3027;102109;2021-05-03 14:51:47:464
1.3833;-2.4092;-9.3841;102159;2021-05-03 14:51:47:514
1.3833;-2.4092;-9.3841;102209;2021-05-03 14:51:47:564
1.4287;-2.4092;-9.4966;102258;2021-05-03 14:51:47:613
1.4287;-2.4092;-9.4966;102308;2021-05-03 14:51:47:663
1.412;-2.2847;-9.3434;102359;2021-05-03 14:51:47:714
1.412;-2.2847;-9.3434;102409;2021-05-03 14:51:47:764
1.3928;-2.3972;-9.4176;102459;2021-05-03 14:51:47:814
1.3928;-2.3972;-9.4176;102509;2021-05-03 14:51:47:864
1.3689;-2.4499;-9.4344;102559;2021-05-03 14:51:47:914
1.3689;-2.4499;-9.4344;102609;2021-05-03 14:51:47:964
1.2683;-2.3828;-9.3266;102658;2021-05-03 14:51:48:013
1.2683;-2.3828;-9.3266;102709;2021-05-03 14:51:48:064
1.5437;-2.3565;-9.5565;102759;2021-05-03 14:51:48:114
1.5437;-2.3565;-9.5565;102809;2021-05-03 14:51:48:164
1.2396;-2.4427;-9.3194;102858;2021-05-03 14:51:48:213
1.2396;-2.4427;-9.3194;102908;2021-05-03 14:51:48:263
1.4024;-2.4235;-9.4415;102959;2021-05-03 14:51:48:314
1.4024;-2.4235;-9.4415;103009;2021-05-03 14:51:48:364
1.4503;-2.3637;-9.42;103059;2021-05-03 14:51:48:414
1.4503;-2.3637;-9.42;103109;2021-05-03 14:51:48:464
1.2659;-2.4427;-9.3817;103158;2021-05-03 14:51:48:513
1.2659;-2.4427;-9.3817;103209;2021-05-03 14:51:48:564
1.3976;-2.3685;-9.4367;103259;2021-05-03 14:51:48:614
1.3976;-2.3685;-9.4367;103309;2021-05-03 14:51:48:664
1.3018;-2.4235;-9.3577;103358;2021-05-03 14:51:48:713
1.3018;-2.4235;-9.3577;103409;2021-05-03 14:51:48:764
1.4814;-2.3804;-9.4846;103459;2021-05-03 14:51:48:814
1.4814;-2.3804;-9.4846;103509;2021-05-03 14:51:48:864
1.3042;-2.4379;-9.2739;103558;2021-05-03 14:51:48:913
1.3042;-2.4379;-9.2739;103608;2021-05-03 14:51:48:963
1.3833;-2.4068;-9.4822;103658;2021-05-03 14:51:49:013
1.3833;-2.4068;-9.4822;103708;2021-05-03 14:51:49:063
1.491;-2.378;-9.5972;103759;2021-05-03 14:51:49:114
1.491;-2.378;-9.5972;103808;2021-05-03 14:51:49:163
1.2228;-2.3876;-9.2787;103859;2021-05-03 14:51:49:214
1.2228;-2.3876;-9.2787;103909;2021-05-03 14:51:49:264
1.4551;-2.4092;-9.4511;103958;2021-05-03 14:51:49:313
1.4551;-2.4092;-9.4511;104008;2021-05-03 14:51:49:363
1.3545;-2.4618;-9.432;104059;2021-05-03 14:51:49:414
1.3545;-2.4618;-9.432;104109;2021-05-03 14:51:49:464
1.4647;-2.3062;-9.4344;104158;2021-05-03 14:51:49:513
1.4647;-2.3062;-9.4344;104208;2021-05-03 14:51:49:563
1.2779;-2.5265;-9.3051;104259;2021-05-03 14:51:49:614
1.2779;-2.5265;-9.3051;104309;2021-05-03 14:51:49:664
1.4359;-2.3948;-9.4894;104359;2021-05-03 14:51:49:714
1.4359;-2.3948;-9.4894;104409;2021-05-03 14:51:49:764
1.4623;-2.3733;-9.4439;104459;2021-05-03 14:51:49:814
1.4623;-2.3733;-9.4439;104509;2021-05-03 14:51:49:864
1.2516;-2.4355;-9.3673;104559;2021-05-03 14:51:49:914
1.2516;-2.4355;-9.3673;104609;2021-05-03 14:51:49:964
1.5077;-2.3469;-9.5014;104659;2021-05-03 14:51:50:014
1.5077;-2.3469;-9.5014;104709;2021-05-03 14:51:50:064
1.3497;-2.3996;-9.3075;104759;2021-05-03 14:51:50:114
1.3497;-2.3996;-9.3075;104809;2021-05-03 14:51:50:164
1.4144;-2.4187;-9.4152;104858;2021-05-03 14:51:50:213
1.4144;-2.4187;-9.4152;104908;2021-05-03 14:51:50:263
1.4263;-2.4068;-9.4128;104959;2021-05-03 14:51:50:314
1.4263;-2.4068;-9.4128;105009;2021-05-03 14:51:50:364
1.254;-2.4283;-9.2596;105059;2021-05-03 14:51:50:414
1.254;-2.4283;-9.2596;105109;2021-05-03 14:51:50:464
1.5125;-2.4211;-9.4487;105159;2021-05-03 14:51:50:514
1.5125;-2.4211;-9.4487;105209;2021-05-03 14:51:50:564
1.3976;-2.4499;-9.3553;105259;2021-05-03 14:51:50:614
1.3976;-2.4499;-9.3553;105309;2021-05-03 14:51:50:664
1.3689;-2.3828;-9.3553;105358;2021-05-03 14:51:50:713
1.3689;-2.3828;-9.3553;105409;2021-05-03 14:51:50:764
1.4503;-2.4379;-9.396;105459;2021-05-03 14:51:50:814
1.4503;-2.4379;-9.396;105508;2021-05-03 14:51:50:863
1.3425;-2.4187;-9.4272;105559;2021-05-03 14:51:50:914
1.3425;-2.4187;-9.4272;105609;2021-05-03 14:51:50:964
1.424;-2.3996;-9.3913;105659;2021-05-03 14:51:51:014
1.424;-2.3996;-9.3913;105709;2021-05-03 14:51:51:064
1.3641;-2.4283;-9.4296;105758;2021-05-03 14:51:51:113
1.3641;-2.4283;-9.4296;105809;2021-05-03 14:51:51:164
1.3928;-2.3421;-9.4511;105859;2021-05-03 14:51:51:214
1.3928;-2.3421;-9.4511;105909;2021-05-03 14:51:51:264
1.3282;-2.3828;-9.3458;105959;2021-05-03 14:51:51:314
1.3282;-2.3828;-9.3458;106009;2021-05-03 14:51:51:364
1.4311;-2.3924;-9.4344;106058;2021-05-03 14:51:51:413
1.4311;-2.3924;-9.4344;106108;2021-05-03 14:51:51:463
1.4383;-2.3972;-9.3386;106158;2021-05-03 14:51:51:513
1.4383;-2.3972;-9.3386;106208;2021-05-03 14:51:51:563
1.3306;-2.3278;-9.4032;106259;2021-05-03 14:51:51:614
1.3306;-2.3278;-9.4032;106309;2021-05-03 14:51:51:664
1.4;-2.3852;-9.4272;106358;2021-05-03 14:51:51:713
1.4;-2.3852;-9.4272;106409;2021-05-03 14:51:51:764
1.3234;-2.4954;-9.408;106459;2021-05-03 14:51:51:814
1.3234;-2.4954;-9.408;106509;2021-05-03 14:51:51:864
1.4647;-2.3469;-9.4367;106558;2021-05-03 14:51:51:913
1.4647;-2.3469;-9.4367;106608;2021-05-03 14:51:51:963
1.3737;-2.4355;-9.3817;106659;2021-05-03 14:51:52:014
1.3737;-2.4355;-9.3817;106709;2021-05-03 14:51:52:064
1.3761;-2.4379;-9.4439;106759;2021-05-03 14:51:52:114
1.3761;-2.4379;-9.4439;106809;2021-05-03 14:51:52:164
1.4718;-2.3517;-9.4056;106859;2021-05-03 14:51:52:214
1.4718;-2.3517;-9.4056;106908;2021-05-03 14:51:52:263
1.3641;-2.4451;-9.4104;106959;2021-05-03 14:51:52:314
1.3641;-2.4451;-9.4104;107009;2021-05-03 14:51:52:364
1.3497;-2.3852;-9.4104;107059;2021-05-03 14:51:52:414
1.3497;-2.3852;-9.4104;107109;2021-05-03 14:51:52:464
1.3378;-2.4283;-9.3793;107158;2021-05-03 14:51:52:513
1.3378;-2.4283;-9.3793;107209;2021-05-03 14:51:52:564
1.4216;-2.3589;-9.4631;107259;2021-05-03 14:51:52:614
1.4216;-2.3589;-9.4631;107309;2021-05-03 14:51:52:664
1.3378;-2.4163;-9.3458;107359;2021-05-03 14:51:52:714
1.3378;-2.4163;-9.3458;107409;2021-05-03 14:51:52:764
1.4551;-2.4594;-9.5134;107459;2021-05-03 14:51:52:814
1.4551;-2.4594;-9.5134;107509;2021-05-03 14:51:52:864
1.3354;-2.3828;-9.3506;107559;2021-05-03 14:51:52:914
1.3354;-2.3828;-9.3506;107609;2021-05-03 14:51:52:964
1.4192;-2.3517;-9.3984;107659;2021-05-03 14:51:53:014
1.4192;-2.3517;-9.3984;107709;2021-05-03 14:51:53:064
1.3617;-2.4331;-9.4367;107759;2021-05-03 14:51:53:114
1.3617;-2.4331;-9.4367;107809;2021-05-03 14:51:53:164
1.3617;-2.378;-9.4152;107859;2021-05-03 14:51:53:214
1.3617;-2.378;-9.4152;107909;2021-05-03 14:51:53:264
1.4216;-2.3661;-9.4176;107959;2021-05-03 14:51:53:314
1.4216;-2.3661;-9.4176;108008;2021-05-03 14:51:53:363
1.3689;-2.402;-9.3697;108059;2021-05-03 14:51:53:414
1.3689;-2.402;-9.3697;108109;2021-05-03 14:51:53:464
1.3306;-2.4163;-9.3984;108159;2021-05-03 14:51:53:514
1.3306;-2.4163;-9.3984;108208;2021-05-03 14:51:53:563
1.4455;-2.3278;-9.4344;108259;2021-05-03 14:51:53:614
1.4455;-2.3278;-9.4344;108309;2021-05-03 14:51:53:664
1.2803;-2.5025;-9.4056;108359;2021-05-03 14:51:53:714
1.2803;-2.5025;-9.4056;108408;2021-05-03 14:51:53:763
1.4742;-2.3254;-9.4703;108459;2021-05-03 14:51:53:814
1.4742;-2.3254;-9.4703;108508;2021-05-03 14:51:53:863
1.3617;-2.414;-9.3889;108558;2021-05-03 14:51:53:913
1.3617;-2.414;-9.3889;108609;2021-05-03 14:51:53:964
1.3617;-2.402;-9.4391;108659;2021-05-03 14:51:54:014
1.3617;-2.402;-9.4391;108709;2021-05-03 14:51:54:064
1.4216;-2.3278;-9.3936;108758;2021-05-03 14:51:54:113
1.4216;-2.3278;-9.3936;108808;2021-05-03 14:51:54:163
1.4407;-2.3517;-9.396;108858;2021-05-03 14:51:54:213
1.4407;-2.3517;-9.396;108909;2021-05-03 14:51:54:264
1.2779;-2.3972;-9.329;108959;2021-05-03 14:51:54:314
1.2779;-2.3972;-9.329;109009;2021-05-03 14:51:54:364
1.4766;-2.4187;-9.4751;109059;2021-05-03 14:51:54:414
1.4766;-2.4187;-9.4751;109109;2021-05-03 14:51:54:464
1.3737;-2.3493;-9.3314;109159;2021-05-03 14:51:54:514
1.3737;-2.3493;-9.3314;109209;2021-05-03 14:51:54:564
1.3856;-2.3996;-9.4607;109259;2021-05-03 14:51:54:614
1.3856;-2.3996;-9.4607;109309;2021-05-03 14:51:54:664
1.3545;-2.4092;-9.4152;109359;2021-05-03 14:51:54:714
1.3545;-2.4092;-9.4152;109409;2021-05-03 14:51:54:764
1.3737;-2.4044;-9.3673;109459;2021-05-03 14:51:54:814
1.3737;-2.4044;-9.3673;109509;2021-05-03 14:51:54:864
1.4431;-2.3804;-9.4679;109559;2021-05-03 14:51:54:914
1.4431;-2.3804;-9.4679;109609;2021-05-03 14:51:54:964
1.2827;-2.4523;-9.2979;109659;2021-05-03 14:51:55:014
1.2827;-2.4523;-9.2979;109708;2021-05-03 14:51:55:063
1.3833;-2.378;-9.4296;109759;2021-05-03 14:51:55:114
1.3833;-2.378;-9.4296;109809;2021-05-03 14:51:55:164
1.4479;-2.414;-9.4703;109859;2021-05-03 14:51:55:214
1.4479;-2.414;-9.4703;109909;2021-05-03 14:51:55:264
1.2995;-2.3804;-9.3721;109959;2021-05-03 14:51:55:314
1.2995;-2.3804;-9.3721;110009;2021-05-03 14:51:55:364
1.4192;-2.3804;-9.4176;110059;2021-05-03 14:51:55:414
1.4192;-2.3804;-9.4176;110109;2021-05-03 14:51:55:464
1.3138;-2.4379;-9.317;110159;2021-05-03 14:51:55:514
1.3138;-2.4379;-9.317;110209;2021-05-03 14:51:55:564
1.388;-2.3469;-9.4391;110259;2021-05-03 14:51:55:614
1.388;-2.3469;-9.4391;110309;2021-05-03 14:51:55:664
1.3521;-2.4738;-9.4056;110359;2021-05-03 14:51:55:714
1.3521;-2.4738;-9.4056;110409;2021-05-03 14:51:55:764
1.479;-2.3086;-9.487;110458;2021-05-03 14:51:55:813
1.479;-2.3086;-9.487;110509;2021-05-03 14:51:55:864
1.3425;-2.4642;-9.317;110559;2021-05-03 14:51:55:914
1.3425;-2.4642;-9.317;110609;2021-05-03 14:51:55:964
1.3713;-2.4044;-9.4583;110659;2021-05-03 14:51:56:014
1.3713;-2.4044;-9.4583;110709;2021-05-03 14:51:56:064
1.4216;-2.378;-9.4272;110759;2021-05-03 14:51:56:114
1.4216;-2.378;-9.4272;110809;2021-05-03 14:51:56:164
1.3402;-2.3469;-9.3721;110859;2021-05-03 14:51:56:214
1.3402;-2.3469;-9.3721;110908;2021-05-03 14:51:56:263
1.3761;-2.4092;-9.408;110958;2021-05-03 14:51:56:313
1.3761;-2.4092;-9.408;111009;2021-05-03 14:51:56:364
1.3569;-2.3733;-9.4152;111058;2021-05-03 14:51:56:413
1.3569;-2.3733;-9.4152;111108;2021-05-03 14:51:56:463
1.3378;-2.3996;-9.4056;111158;2021-05-03 14:51:56:513
1.3378;-2.3996;-9.4056;111208;2021-05-03 14:51:56:563
1.4072;-2.4283;-9.4032;111259;2021-05-03 14:51:56:614
1.4072;-2.4283;-9.4032;111309;2021-05-03 14:51:56:664
1.3928;-2.3972;-9.4296;111359;2021-05-03 14:51:56:714
1.3928;-2.3972;-9.4296;111409;2021-05-03 14:51:56:764
1.3449;-2.3397;-9.4248;111459;2021-05-03 14:51:56:814
1.3449;-2.3397;-9.4248;111509;2021-05-03 14:51:56:864
1.4144;-2.3733;-9.3793;111559;2021-05-03 14:51:56:914
1.4144;-2.3733;-9.3793;111608;2021-05-03 14:51:56:963
1.4;-2.402;-9.3936;111659;2021-05-03 14:51:57:014
1.4;-2.402;-9.3936;111708;2021-05-03 14:51:57:063
1.3449;-2.3733;-9.3984;111758;2021-05-03 14:51:57:113
1.3449;-2.3733;-9.3984;111809;2021-05-03 14:51:57:164
1.3856;-2.4068;-9.4128;111859;2021-05-03 14:51:57:214
1.3856;-2.4068;-9.4128;111909;2021-05-03 14:51:57:264
1.3904;-2.4116;-9.4056;111959;2021-05-03 14:51:57:314
1.3904;-2.4116;-9.4056;112009;2021-05-03 14:51:57:364
1.3713;-2.3924;-9.4296;112059;2021-05-03 14:51:57:414
1.3713;-2.3924;-9.4296;112109;2021-05-03 14:51:57:464
1.3497;-2.3828;-9.4487;112159;2021-05-03 14:51:57:514
1.3497;-2.3828;-9.4487;112209;2021-05-03 14:51:57:564
1.3833;-2.3972;-9.4559;112259;2021-05-03 14:51:57:614
1.3833;-2.3972;-9.4559;112309;2021-05-03 14:51:57:664
1.4575;-2.457;-9.3075;112359;2021-05-03 14:51:57:714
1.4575;-2.457;-9.3075;112409;2021-05-03 14:51:57:764
1.3425;-2.3661;-9.4367;112459;2021-05-03 14:51:57:814
1.3425;-2.3661;-9.4367;112508;2021-05-03 14:51:57:863
1.3593;-2.4379;-9.4463;112559;2021-05-03 14:51:57:914
1.3593;-2.4379;-9.4463;112608;2021-05-03 14:51:57:963
1.3809;-2.3445;-9.4367;112658;2021-05-03 14:51:58:013
1.3809;-2.3445;-9.4367;112709;2021-05-03 14:51:58:064
1.4216;-2.4379;-9.3649;112759;2021-05-03 14:51:58:114
1.4216;-2.4379;-9.3649;112809;2021-05-03 14:51:58:164
1.3665;-2.4044;-9.4176;112859;2021-05-03 14:51:58:214
1.3665;-2.4044;-9.4176;112909;2021-05-03 14:51:58:264
1.3928;-2.39;-9.396;112959;2021-05-03 14:51:58:314
1.3928;-2.39;-9.396;113008;2021-05-03 14:51:58:363
1.4024;-2.402;-9.408;113059;2021-05-03 14:51:58:414
1.4024;-2.402;-9.408;113108;2021-05-03 14:51:58:463
1.412;-2.4116;-9.4774;113158;2021-05-03 14:51:58:513
1.412;-2.4116;-9.4774;113209;2021-05-03 14:51:58:564
1.4024;-2.4307;-9.4176;113259;2021-05-03 14:51:58:614
1.4024;-2.4307;-9.4176;113309;2021-05-03 14:51:58:664
1.3641;-2.3733;-9.4583;113358;2021-05-03 14:51:58:713
1.3641;-2.3733;-9.4583;113409;2021-05-03 14:51:58:764
1.3497;-2.378;-9.3841;113458;2021-05-03 14:51:58:813
1.3497;-2.378;-9.3841;113509;2021-05-03 14:51:58:864
1.4168;-2.4044;-9.3865;113559;2021-05-03 14:51:58:914
1.4168;-2.4044;-9.3865;113609;2021-05-03 14:51:58:964
1.4407;-2.4475;-9.3529;113659;2021-05-03 14:51:59:014
1.4407;-2.4475;-9.3529;113708;2021-05-03 14:51:59:063
1.3761;-2.3924;-9.3721;113758;2021-05-03 14:51:59:113
1.3761;-2.3924;-9.3721;113808;2021-05-03 14:51:59:163
1.3809;-2.4307;-9.4655;113858;2021-05-03 14:51:59:213
1.3809;-2.4307;-9.4655;113909;2021-05-03 14:51:59:264
1.4072;-2.3996;-9.3913;113959;2021-05-03 14:51:59:314
1.4072;-2.3996;-9.3913;114009;2021-05-03 14:51:59:364
1.3809;-2.4092;-9.4224;114059;2021-05-03 14:51:59:414
1.3809;-2.4092;-9.4224;114108;2021-05-03 14:51:59:463
1.3593;-2.3828;-9.3913;114158;2021-05-03 14:51:59:513
1.3593;-2.3828;-9.3913;114209;2021-05-03 14:51:59:564
1.3856;-2.3828;-9.3984;114259;2021-05-03 14:51:59:614
1.3856;-2.3828;-9.3984;114309;2021-05-03 14:51:59:664
1.4383;-2.4403;-9.3913;114359;2021-05-03 14:51:59:714
1.4383;-2.4403;-9.3913;114408;2021-05-03 14:51:59:763
1.3761;-2.3733;-9.3434;114459;2021-05-03 14:51:59:814
1.3761;-2.3733;-9.3434;114509;2021-05-03 14:51:59:864
1.3497;-2.4187;-9.4224;114559;2021-05-03 14:51:59:914
1.3497;-2.4187;-9.4224;114609;2021-05-03 14:51:59:964
1.4144;-2.3948;-9.3936;114659;2021-05-03 14:52:00:014
1.4144;-2.3948;-9.3936;114709;2021-05-03 14:52:00:064
1.3952;-2.3804;-9.4224;114758;2021-05-03 14:52:00:113
1.3952;-2.3804;-9.4224;114808;2021-05-03 14:52:00:163
1.3833;-2.3948;-9.3362;114859;2021-05-03 14:52:00:214
1.3833;-2.3948;-9.3362;114909;2021-05-03 14:52:00:264
1.4;-2.4331;-9.4415;114959;2021-05-03 14:52:00:314
1.4;-2.4331;-9.4415;115008;2021-05-03 14:52:00:363
1.3928;-2.3804;-9.3889;115059;2021-05-03 14:52:00:414
1.3928;-2.3804;-9.3889;115109;2021-05-03 14:52:00:464
1.3593;-2.3852;-9.432;115159;2021-05-03 14:52:00:514
1.3593;-2.3852;-9.432;115209;2021-05-03 14:52:00:564
1.3904;-2.4068;-9.3865;115259;2021-05-03 14:52:00:614
1.3904;-2.4068;-9.3865;115309;2021-05-03 14:52:00:664
1.412;-2.3637;-9.4032;115359;2021-05-03 14:52:00:714
