sep=;
ACCELEROMETER X (m/s²);ACCELEROMETER Y (m/s²);ACCELEROMETER Z (m/s²);Time since start in ms ;YYYY-MO-DD HH-MI-SS_SSS
2.3469;-9.3799;1.2863;1005;2021-05-03 15:09:38:297
2.6827;-9.4373;0.9499;1055;2021-05-03 15:09:38:347
2.5899;-9.5277;0.4902;1105;2021-05-03 15:09:38:397
2.5899;-9.5277;0.4902;1155;2021-05-03 15:09:38:447
2.1506;-9.6229;0.0042;1205;2021-05-03 15:09:38:497
1.9172;-9.5451;-0.4298;1255;2021-05-03 15:09:38:547
1.9172;-9.5451;-0.4298;1305;2021-05-03 15:09:38:597
2.2835;-9.5846;0.079;1354;2021-05-03 15:09:38:646
2.3954;-9.5523;0.598;1404;2021-05-03 15:09:38:696
2.478;-9.4864;0.7344;1455;2021-05-03 15:09:38:747
2.478;-9.4864;0.7344;1505;2021-05-03 15:09:38:797
2.1584;-9.5038;0.5896;1555;2021-05-03 15:09:38:847
2.1308;-9.6043;0.3298;1605;2021-05-03 15:09:38:897
2.1308;-9.6043;0.3298;1655;2021-05-03 15:09:38:947
2.3912;-9.599;0.0874;1704;2021-05-03 15:09:38:996
2.0399;-9.5253;0.003;1755;2021-05-03 15:09:39:047
1.7903;-9.818;0.1532;1805;2021-05-03 15:09:39:097
1.7903;-9.818;0.1532;1855;2021-05-03 15:09:39:147
2.0853;-9.3715;0.3124;1905;2021-05-03 15:09:39:197
2.077;-9.5152;0.3442;1955;2021-05-03 15:09:39:247
2.077;-9.5152;0.3442;2005;2021-05-03 15:09:39:297
2.1296;-9.5523;0.2035;2055;2021-05-03 15:09:39:347
2.3906;-9.648;0.067;2105;2021-05-03 15:09:39:397
2.4277;-9.3194;-0.0269;2155;2021-05-03 15:09:39:447
2.4277;-9.3194;-0.0269;2205;2021-05-03 15:09:39:497
1.6526;-9.0184;-0.0784;2255;2021-05-03 15:09:39:547
0.9451;-10.2328;0.0257;2305;2021-05-03 15:09:39:597
0.9451;-10.2328;0.0257;2355;2021-05-03 15:09:39:647
1.5951;-9.6283;0.167;2405;2021-05-03 15:09:39:697
1.6275;-9.7109;0.234;2455;2021-05-03 15:09:39:747
1.0403;-9.7815;0.3166;2505;2021-05-03 15:09:39:797
1.0403;-9.7815;0.3166;2555;2021-05-03 15:09:39:847
0.9194;-9.7408;0.346;2604;2021-05-03 15:09:39:896
0.7949;-9.7474;0.3352;2655;2021-05-03 15:09:39:947
0.7949;-9.7474;0.3352;2705;2021-05-03 15:09:39:997
0.7344;-9.733;0.1018;2755;2021-05-03 15:09:40:047
0.6434;-9.9258;0.0437;2805;2021-05-03 15:09:40:097
0.7997;-9.7474;0.2215;2855;2021-05-03 15:09:40:147
0.7997;-9.7474;0.2215;2904;2021-05-03 15:09:40:196
1.1504;-9.7773;0.4615;2955;2021-05-03 15:09:40:247
0.7494;-9.5331;0.5381;3005;2021-05-03 15:09:40:297
0.7494;-9.5331;0.5381;3055;2021-05-03 15:09:40:347
0.4519;-9.73;0.5345;3105;2021-05-03 15:09:40:397
0.0958;-10.1795;0.4639;3155;2021-05-03 15:09:40:447
0.0958;-10.1795;0.4639;3204;2021-05-03 15:09:40:496
-0.0982;-9.7749;0.3059;3255;2021-05-03 15:09:40:547
0.3256;-9.8264;0.3681;3304;2021-05-03 15:09:40:596
1.2157;-9.7486;0.5052;3355;2021-05-03 15:09:40:647
1.2157;-9.7486;0.5052;3405;2021-05-03 15:09:40:697
0.735;-9.9653;0.2017;3455;2021-05-03 15:09:40:747
0.3549;-9.9018;-0.1933;3505;2021-05-03 15:09:40:797
0.3549;-9.9018;-0.1933;3555;2021-05-03 15:09:40:847
1.3276;-9.6857;0.2358;3605;2021-05-03 15:09:40:897
1.4862;-9.7139;0.6566;3655;2021-05-03 15:09:40:947
1.0151;-9.7546;0.3855;3705;2021-05-03 15:09:40:997
1.0151;-9.7546;0.3855;3755;2021-05-03 15:09:41:047
1.8058;-9.5146;0.2747;3805;2021-05-03 15:09:41:097
1.2809;-9.7725;0.2448;3854;2021-05-03 15:09:41:146
1.2809;-9.7725;0.2448;3905;2021-05-03 15:09:41:197
1.1869;-9.5942;0.4022;3955;2021-05-03 15:09:41:247
1.6795;-9.6468;0.574;4005;2021-05-03 15:09:41:297
1.476;-9.663;0.3585;4054;2021-05-03 15:09:41:346
1.476;-9.663;0.3585;4105;2021-05-03 15:09:41:397
1.2354;-9.6726;0.1006;4155;2021-05-03 15:09:41:447
1.6562;-9.7671;0.1035;4205;2021-05-03 15:09:41:497
1.6562;-9.7671;0.1035;4255;2021-05-03 15:09:41:547
1.6682;-9.5002;0.3238;4305;2021-05-03 15:09:41:597
1.5137;-9.827;0.4483;4355;2021-05-03 15:09:41:647
1.828;-9.5738;0.3106;4405;2021-05-03 15:09:41:697
1.828;-9.5738;0.3106;4455;2021-05-03 15:09:41:747
1.585;-9.6899;0.3561;4505;2021-05-03 15:09:41:797
1.2402;-9.6911;0.3508;4555;2021-05-03 15:09:41:847
1.2402;-9.6911;0.3508;4605;2021-05-03 15:09:41:897
1.4557;-9.7031;0.343;4655;2021-05-03 15:09:41:947
1.3659;-9.6708;0.2741;4705;2021-05-03 15:09:41:997
1.7041;-9.7187;0.4112;4755;2021-05-03 15:09:42:047
1.7041;-9.7187;0.4112;4804;2021-05-03 15:09:42:096
1.6382;-9.5756;0.5285;4854;2021-05-03 15:09:42:146
1.2947;-9.6947;0.4351;4905;2021-05-03 15:09:42:197
1.2947;-9.6947;0.4351;4955;2021-05-03 15:09:42:247
1.3515;-9.7348;0.2747;5005;2021-05-03 15:09:42:297
1.6556;-9.6007;0.4244;5055;2021-05-03 15:09:42:347
1.2749;-9.7414;0.4507;5105;2021-05-03 15:09:42:397
1.2749;-9.7414;0.4507;5155;2021-05-03 15:09:42:447
1.2821;-9.6708;0.3071;5205;2021-05-03 15:09:42:497
1.3988;-9.6564;0.3418;5254;2021-05-03 15:09:42:546
1.3988;-9.6564;0.3418;5305;2021-05-03 15:09:42:597
1.4;-9.6953;0.41;5355;2021-05-03 15:09:42:647
1.4317;-9.7055;0.3825;5404;2021-05-03 15:09:42:696
1.5676;-9.6211;0.4615;5455;2021-05-03 15:09:42:747
1.5676;-9.6211;0.4615;5505;2021-05-03 15:09:42:797
1.6969;-9.7049;0.577;5555;2021-05-03 15:09:42:847
1.5239;-9.6426;0.5315;5605;2021-05-03 15:09:42:897
1.5239;-9.6426;0.5315;5655;2021-05-03 15:09:42:947
1.4042;-9.666;0.4645;5705;2021-05-03 15:09:42:997
1.4742;-9.7252;0.504;5755;2021-05-03 15:09:43:047
1.3844;-9.6827;0.501;5805;2021-05-03 15:09:43:097
1.3844;-9.6827;0.501;5855;2021-05-03 15:09:43:147
1.5048;-9.6468;0.5387;5905;2021-05-03 15:09:43:197
1.6676;-9.6923;0.6829;5955;2021-05-03 15:09:43:247
1.6676;-9.6923;0.6829;6005;2021-05-03 15:09:43:297
1.2444;-9.6115;0.6075;6055;2021-05-03 15:09:43:347
1.303;-9.8348;0.1059;6105;2021-05-03 15:09:43:397
1.303;-9.8348;0.1059;6155;2021-05-03 15:09:43:447
1.646;-9.6199;0.2077;6205;2021-05-03 15:09:43:497
1.4742;-9.6253;0.6033;6255;2021-05-03 15:09:43:547
1.3569;-9.7127;0.4687;6305;2021-05-03 15:09:43:597
1.3569;-9.7127;0.4687;6354;2021-05-03 15:09:43:646
1.1893;-9.7217;0.1867;6405;2021-05-03 15:09:43:697
1.4766;-9.6792;0.3071;6455;2021-05-03 15:09:43:747
1.4766;-9.6792;0.3071;6505;2021-05-03 15:09:43:797
1.6382;-9.6792;0.4375;6555;2021-05-03 15:09:43:847
1.3838;-9.7019;0.2269;6606;2021-05-03 15:09:43:898
1.227;-9.6995;0.0485;6655;2021-05-03 15:09:43:947
1.227;-9.6995;0.0485;6705;2021-05-03 15:09:43:997
1.1839;-9.7109;0.2298;6755;2021-05-03 15:09:44:047
1.4838;-9.6612;0.4411;6805;2021-05-03 15:09:44:097
1.4838;-9.6612;0.4411;6855;2021-05-03 15:09:44:147
1.494;-9.6738;0.4124;6905;2021-05-03 15:09:44:197
1.3384;-9.6385;0.2364;6955;2021-05-03 15:09:44:247
1.4575;-9.763;0.2274;7005;2021-05-03 15:09:44:297
1.4575;-9.763;0.2274;7055;2021-05-03 15:09:44:347
1.6466;-9.6582;0.413;7105;2021-05-03 15:09:44:397
1.4096;-9.6839;0.4962;7155;2021-05-03 15:09:44:447
1.4096;-9.6839;0.4962;7205;2021-05-03 15:09:44:497
1.3156;-9.6881;0.349;7255;2021-05-03 15:09:44:547
1.4551;-9.6768;0.3095;7305;2021-05-03 15:09:44:597
1.4305;-9.7145;0.4028;7355;2021-05-03 15:09:44:647
1.4305;-9.7145;0.4028;7405;2021-05-03 15:09:44:697
1.3958;-9.6696;0.3938;7455;2021-05-03 15:09:44:747
1.4455;-9.6917;0.4094;7505;2021-05-03 15:09:44:797
1.4455;-9.6917;0.4094;7555;2021-05-03 15:09:44:847
1.4676;-9.6881;0.3956;7604;2021-05-03 15:09:44:896
1.4982;-9.7001;0.3909;7654;2021-05-03 15:09:44:946
1.4162;-9.6486;0.331;7705;2021-05-03 15:09:44:997
1.4162;-9.6486;0.331;7755;2021-05-03 15:09:45:047
1.3809;-9.7294;0.3089;7805;2021-05-03 15:09:45:097
1.4413;-9.672;0.3059;7855;2021-05-03 15:09:45:147
1.4413;-9.672;0.3059;7905;2021-05-03 15:09:45:197
1.4192;-9.6851;0.3274;7955;2021-05-03 15:09:45:247
1.3671;-9.6935;0.3059;8005;2021-05-03 15:09:45:297
1.424;-9.6618;0.3095;8054;2021-05-03 15:09:45:346
1.424;-9.6618;0.3095;8105;2021-05-03 15:09:45:397
1.3737;-9.6983;0.3286;8155;2021-05-03 15:09:45:447
1.491;-9.7097;0.3166;8205;2021-05-03 15:09:45:497
1.491;-9.7097;0.3166;8255;2021-05-03 15:09:45:547
1.5006;-9.6744;0.3831;8305;2021-05-03 15:09:45:597
1.3994;-9.6612;0.3909;8355;2021-05-03 15:09:45:647
1.4551;-9.6714;0.3615;8405;2021-05-03 15:09:45:697
1.4551;-9.6714;0.3615;8455;2021-05-03 15:09:45:747
1.4006;-9.7169;0.343;8505;2021-05-03 15:09:45:797
1.3946;-9.6917;0.2795;8555;2021-05-03 15:09:45:847
1.3946;-9.6917;0.2795;8605;2021-05-03 15:09:45:897
1.4287;-9.6684;0.325;8655;2021-05-03 15:09:45:947
1.3527;-9.6977;0.4034;8705;2021-05-03 15:09:45:997
1.394;-9.6917;0.3448;8755;2021-05-03 15:09:46:047
1.394;-9.6917;0.3448;8805;2021-05-03 15:09:46:097
1.4036;-9.6953;0.2777;8855;2021-05-03 15:09:46:147
1.3593;-9.6929;0.3358;8905;2021-05-03 15:09:46:197
1.3593;-9.6929;0.3358;8954;2021-05-03 15:09:46:246
1.4078;-9.6983;0.4322;9005;2021-05-03 15:09:46:297
1.2983;-9.6929;0.3256;9055;2021-05-03 15:09:46:347
1.4838;-9.6953;0.34;9105;2021-05-03 15:09:46:397
1.4838;-9.6953;0.34;9154;2021-05-03 15:09:46:446
1.424;-9.6839;0.4262;9205;2021-05-03 15:09:46:497
1.2881;-9.6977;0.3364;9255;2021-05-03 15:09:46:547
1.2881;-9.6977;0.3364;9305;2021-05-03 15:09:46:597
1.3982;-9.6983;0.2628;9355;2021-05-03 15:09:46:647
1.5119;-9.6624;0.3921;9404;2021-05-03 15:09:46:696
1.5119;-9.6624;0.3921;9455;2021-05-03 15:09:46:747
1.3946;-9.7091;0.3795;9505;2021-05-03 15:09:46:797
1.303;-9.6899;0.2544;9555;2021-05-03 15:09:46:847
1.4365;-9.7001;0.2843;9604;2021-05-03 15:09:46:896
1.4365;-9.7001;0.2843;9655;2021-05-03 15:09:46:947
1.4353;-9.6738;0.3621;9705;2021-05-03 15:09:46:997
1.3922;-9.6839;0.3615;9755;2021-05-03 15:09:47:047
1.3922;-9.6839;0.3615;9805;2021-05-03 15:09:47:097
1.3988;-9.6953;0.2975;9855;2021-05-03 15:09:47:147
1.3449;-9.7127;0.2562;9905;2021-05-03 15:09:47:197
1.4467;-9.66;0.3106;9955;2021-05-03 15:09:47:247
1.4467;-9.66;0.3106;10005;2021-05-03 15:09:47:297
1.3833;-9.6929;0.4178;10055;2021-05-03 15:09:47:347
1.4425;-9.6726;0.2849;10105;2021-05-03 15:09:47:397
1.4425;-9.6726;0.2849;10155;2021-05-03 15:09:47:447
1.4575;-9.6822;0.2203;10205;2021-05-03 15:09:47:497
1.3761;-9.73;0.2807;10255;2021-05-03 15:09:47:547
1.5167;-9.6486;0.3537;10305;2021-05-03 15:09:47:597
1.5167;-9.6486;0.3537;10355;2021-05-03 15:09:47:647
1.3384;-9.7139;0.2885;10404;2021-05-03 15:09:47:696
1.4611;-9.6875;0.2771;10455;2021-05-03 15:09:47:747
1.4611;-9.6875;0.2771;10505;2021-05-03 15:09:47:797
1.4569;-9.663;0.3621;10555;2021-05-03 15:09:47:847
1.3396;-9.7043;0.2873;10605;2021-05-03 15:09:47:897
1.4916;-9.7073;0.2292;10654;2021-05-03 15:09:47:946
1.4916;-9.7073;0.2292;10705;2021-05-03 15:09:47:997
1.4317;-9.6648;0.2999;10755;2021-05-03 15:09:48:047
1.4808;-9.6804;0.3801;10805;2021-05-03 15:09:48:097
1.4808;-9.6804;0.3801;10855;2021-05-03 15:09:48:147
1.4371;-9.681;0.2945;10905;2021-05-03 15:09:48:197
1.4126;-9.6738;0.2502;10955;2021-05-03 15:09:48:247
1.3952;-9.7043;0.2616;11005;2021-05-03 15:09:48:297
1.3952;-9.7043;0.2616;11055;2021-05-03 15:09:48:347
1.3833;-9.7127;0.234;11105;2021-05-03 15:09:48:397
1.5383;-9.6474;0.2771;11155;2021-05-03 15:09:48:447
1.5383;-9.6474;0.2771;11204;2021-05-03 15:09:48:496
1.4317;-9.6917;0.3496;11255;2021-05-03 15:09:48:547
1.3425;-9.6995;0.2981;11305;2021-05-03 15:09:48:597
1.3563;-9.7031;0.2789;11355;2021-05-03 15:09:48:647
1.3563;-9.7031;0.2789;11405;2021-05-03 15:09:48:697
1.5514;-9.6672;0.3047;11455;2021-05-03 15:09:48:747
1.4;-9.6947;0.2406;11505;2021-05-03 15:09:48:797
1.4;-9.6947;0.2406;11554;2021-05-03 15:09:48:846
1.3509;-9.6947;0.2634;11605;2021-05-03 15:09:48:897
1.4796;-9.672;0.3466;11655;2021-05-03 15:09:48:947
1.4724;-9.6965;0.2795;11705;2021-05-03 15:09:48:997
1.4724;-9.6965;0.2795;11755;2021-05-03 15:09:49:047
1.4114;-9.6839;0.2628;11804;2021-05-03 15:09:49:096
1.4317;-9.6965;0.3083;11855;2021-05-03 15:09:49:147
1.4317;-9.6965;0.3083;11905;2021-05-03 15:09:49:197
1.3467;-9.6917;0.2729;11955;2021-05-03 15:09:49:247
1.5485;-9.6486;0.3621;12005;2021-05-03 15:09:49:297
1.5485;-9.6486;0.3621;12054;2021-05-03 15:09:49:346
1.4772;-9.6804;0.3525;12105;2021-05-03 15:09:49:397
1.3288;-9.6977;0.1766;12154;2021-05-03 15:09:49:446
1.3791;-9.7001;0.1975;12205;2021-05-03 15:09:49:497
1.3791;-9.7001;0.1975;12255;2021-05-03 15:09:49:547
1.4784;-9.6995;0.3071;12305;2021-05-03 15:09:49:597
1.4641;-9.6744;0.3106;12355;2021-05-03 15:09:49:647
1.4641;-9.6744;0.3106;12405;2021-05-03 15:09:49:697
1.4246;-9.6983;0.2825;12455;2021-05-03 15:09:49:747
1.3892;-9.6851;0.2849;12505;2021-05-03 15:09:49:797
1.4952;-9.6768;0.3376;12555;2021-05-03 15:09:49:847
1.4952;-9.6768;0.3376;12605;2021-05-03 15:09:49:897
1.5856;-9.6331;0.4621;12655;2021-05-03 15:09:49:947
1.3138;-9.7294;0.249;12705;2021-05-03 15:09:49:997
1.3138;-9.7294;0.249;12755;2021-05-03 15:09:50:047
1.3844;-9.7055;0.0904;12805;2021-05-03 15:09:50:097
1.4814;-9.6714;0.316;12855;2021-05-03 15:09:50:147
1.4862;-9.6935;0.4328;12905;2021-05-03 15:09:50:197
1.4862;-9.6935;0.4328;12955;2021-05-03 15:09:50:247
1.4958;-9.6923;0.3615;13005;2021-05-03 15:09:50:297
1.4862;-9.6642;0.2693;13055;2021-05-03 15:09:50:347
1.4862;-9.6642;0.2693;13105;2021-05-03 15:09:50:397
1.5341;-9.6792;0.2795;13155;2021-05-03 15:09:50:447
1.4467;-9.6768;0.3214;13205;2021-05-03 15:09:50:497
1.3455;-9.7061;0.2532;13255;2021-05-03 15:09:50:547
1.3455;-9.7061;0.2532;13305;2021-05-03 15:09:50:597
1.4988;-9.6905;0.264;13355;2021-05-03 15:09:50:647
1.3557;-9.6594;0.2245;13405;2021-05-03 15:09:50:697
1.3557;-9.6594;0.2245;13455;2021-05-03 15:09:50:747
1.4419;-9.6923;0.255;13505;2021-05-03 15:09:50:797
1.4641;-9.6887;0.3059;13555;2021-05-03 15:09:50:847
1.4629;-9.672;0.2963;13605;2021-05-03 15:09:50:897
1.4629;-9.672;0.2963;13655;2021-05-03 15:09:50:947
1.4904;-9.6822;0.2873;13705;2021-05-03 15:09:50:997
1.424;-9.6953;0.2131;13754;2021-05-03 15:09:51:046
1.424;-9.6953;0.2131;13804;2021-05-03 15:09:51:096
1.3928;-9.7115;0.1263;13855;2021-05-03 15:09:51:147
1.5754;-9.6827;0.3346;13905;2021-05-03 15:09:51:197
1.3988;-9.6522;0.4268;13955;2021-05-03 15:09:51:247
1.3988;-9.6522;0.4268;14004;2021-05-03 15:09:51:296
1.3078;-9.7312;0.1975;14055;2021-05-03 15:09:51:347
1.4317;-9.6905;0.1215;14105;2021-05-03 15:09:51:397
1.4317;-9.6905;0.1215;14155;2021-05-03 15:09:51:447
1.4928;-9.6528;0.3232;14205;2021-05-03 15:09:51:497
1.2851;-9.7366;0.2676;14255;2021-05-03 15:09:51:547
1.3671;-9.6822;0.1155;14305;2021-05-03 15:09:51:597
1.3671;-9.6822;0.1155;14355;2021-05-03 15:09:51:647
1.4162;-9.6947;0.1832;14405;2021-05-03 15:09:51:697
1.3653;-9.7049;0.2885;14455;2021-05-03 15:09:51:747
1.3653;-9.7049;0.2885;14505;2021-05-03 15:09:51:797
1.2881;-9.6935;0.2071;14555;2021-05-03 15:09:51:847
1.3288;-9.6863;0.1532;14605;2021-05-03 15:09:51:897
1.5006;-9.7145;0.2484;14655;2021-05-03 15:09:51:947
1.5006;-9.7145;0.2484;14704;2021-05-03 15:09:51:996
1.6472;-9.5864;0.4675;14755;2021-05-03 15:09:52:047
1.3276;-9.739;0.2568;14805;2021-05-03 15:09:52:097
1.3276;-9.739;0.2568;14855;2021-05-03 15:09:52:147
1.2121;-9.6744;-0.0221;14905;2021-05-03 15:09:52:197
1.4401;-9.7241;0.0826;14955;2021-05-03 15:09:52:247
1.4629;-9.6762;0.2562;15005;2021-05-03 15:09:52:297
1.4629;-9.6762;0.2562;15055;2021-05-03 15:09:52:347
1.3126;-9.7414;0.234;15105;2021-05-03 15:09:52:397
1.5311;-9.6816;0.2197;15155;2021-05-03 15:09:52:447
1.5311;-9.6816;0.2197;15205;2021-05-03 15:09:52:497
1.5664;-9.6588;0.3226;15255;2021-05-03 15:09:52:547
1.4521;-9.7223;0.3041;15305;2021-05-03 15:09:52:597
1.4521;-9.7223;0.3041;15355;2021-05-03 15:09:52:647
1.3731;-9.6648;0.2424;15405;2021-05-03 15:09:52:697
1.3719;-9.6672;0.2855;15455;2021-05-03 15:09:52:747
1.3761;-9.7408;0.2257;15505;2021-05-03 15:09:52:797
1.3761;-9.7408;0.2257;15554;2021-05-03 15:09:52:846
1.4736;-9.6768;0.2251;15605;2021-05-03 15:09:52:897
1.3431;-9.6636;0.3136;15655;2021-05-03 15:09:52:947
1.3431;-9.6636;0.3136;15705;2021-05-03 15:09:52:997
1.2965;-9.7145;0.2921;15754;2021-05-03 15:09:53:046
1.4862;-9.645;0.2687;15805;2021-05-03 15:09:53:097
1.4712;-9.6774;0.2783;15855;2021-05-03 15:09:53:147
1.4712;-9.6774;0.2783;15905;2021-05-03 15:09:53:197
1.5167;-9.6732;0.2394;15955;2021-05-03 15:09:53:247
1.4515;-9.73;0.1867;16005;2021-05-03 15:09:53:297
1.4515;-9.73;0.1867;16055;2021-05-03 15:09:53:347
1.5233;-9.6804;0.2753;16105;2021-05-03 15:09:53:397
1.4138;-9.6816;0.3645;16154;2021-05-03 15:09:53:446
1.3162;-9.6786;0.3184;16204;2021-05-03 15:09:53:496
1.3162;-9.6786;0.3184;16255;2021-05-03 15:09:53:547
1.4305;-9.6732;0.3184;16305;2021-05-03 15:09:53:597
1.5622;-9.7528;0.4304;16355;2021-05-03 15:09:53:647
1.5622;-9.7528;0.4304;16405;2021-05-03 15:09:53:697
1.5574;-9.5277;0.4507;16455;2021-05-03 15:09:53:747
1.3737;-9.8144;0.258;16505;2021-05-03 15:09:53:797
1.2761;-9.7007;0.0263;16555;2021-05-03 15:09:53:847
1.2761;-9.7007;0.0263;16605;2021-05-03 15:09:53:897
1.5143;-9.7043;0.3573;16655;2021-05-03 15:09:53:947
1.4246;-9.6624;0.5644;16705;2021-05-03 15:09:53:997
1.4246;-9.6624;0.5644;16755;2021-05-03 15:09:54:047
1.4766;-9.6714;0.3992;16805;2021-05-03 15:09:54:097
1.5131;-9.7001;0.2107;16855;2021-05-03 15:09:54:147
1.3635;-9.6786;0.2508;16905;2021-05-03 15:09:54:197
1.3635;-9.6786;0.2508;16954;2021-05-03 15:09:54:246
1.3833;-9.6881;0.3555;17005;2021-05-03 15:09:54:297
1.5215;-9.6552;0.2316;17055;2021-05-03 15:09:54:347
1.5215;-9.6552;0.2316;17105;2021-05-03 15:09:54:397
1.491;-9.666;0.1299;17155;2021-05-03 15:09:54:447
1.4605;-9.727;0.2041;17205;2021-05-03 15:09:54:497
1.5389;-9.645;0.3376;17255;2021-05-03 15:09:54:547
1.5389;-9.645;0.3376;17305;2021-05-03 15:09:54:597
1.4192;-9.6869;0.2693;17355;2021-05-03 15:09:54:647
1.4629;-9.7223;0.2598;17405;2021-05-03 15:09:54:697
1.4629;-9.7223;0.2598;17455;2021-05-03 15:09:54:747
1.5574;-9.6678;0.3621;17504;2021-05-03 15:09:54:796
1.4216;-9.6391;0.2562;17555;2021-05-03 15:09:54:847
1.5993;-9.6672;0.2029;17605;2021-05-03 15:09:54:897
1.5993;-9.6672;0.2029;17655;2021-05-03 15:09:54:947
1.5485;-9.6534;0.2927;17705;2021-05-03 15:09:54:997
1.4329;-9.6899;0.1754;17755;2021-05-03 15:09:55:047
1.4329;-9.6899;0.1754;17805;2021-05-03 15:09:55:097
1.6801;-9.6636;0.2634;17855;2021-05-03 15:09:55:147
1.5628;-9.6432;0.2556;17905;2021-05-03 15:09:55:197
1.5874;-9.6738;0.1832;17955;2021-05-03 15:09:55:247
1.5874;-9.6738;0.1832;18005;2021-05-03 15:09:55:297
1.6418;-9.6953;0.2999;18054;2021-05-03 15:09:55:346
1.5574;-9.6007;0.4232;18105;2021-05-03 15:09:55:397
1.5574;-9.6007;0.4232;18155;2021-05-03 15:09:55:447
1.5652;-9.7109;0.3597;18205;2021-05-03 15:09:55:497
1.6155;-9.648;0.249;18255;2021-05-03 15:09:55:547
1.6155;-9.648;0.249;18305;2021-05-03 15:09:55:597
1.585;-9.6426;0.2628;18355;2021-05-03 15:09:55:647
1.5664;-9.6923;0.4004;18405;2021-05-03 15:09:55:697
1.5269;-9.6325;0.3472;18455;2021-05-03 15:09:55:747
1.5269;-9.6325;0.3472;18505;2021-05-03 15:09:55:797
1.5658;-9.6756;0.395;18555;2021-05-03 15:09:55:847
1.4694;-9.6361;0.349;18605;2021-05-03 15:09:55:897
1.4694;-9.6361;0.349;18655;2021-05-03 15:09:55:947
1.5772;-9.681;0.2969;18705;2021-05-03 15:09:55:997
1.6299;-9.6983;0.3442;18755;2021-05-03 15:09:56:047
1.4659;-9.66;0.2993;18805;2021-05-03 15:09:56:097
1.4659;-9.66;0.2993;18855;2021-05-03 15:09:56:147
1.5987;-9.599;0.4064;18905;2021-05-03 15:09:56:197
1.3838;-9.7414;0.3944;18954;2021-05-03 15:09:56:246
1.3838;-9.7414;0.3944;19006;2021-05-03 15:09:56:298
1.5766;-9.4415;0.3753;19055;2021-05-03 15:09:56:347
1.8687;-9.9677;0.4735;19105;2021-05-03 15:09:56:397
1.4479;-9.6881;0.3795;19155;2021-05-03 15:09:56:447
1.4479;-9.6881;0.3795;19205;2021-05-03 15:09:56:497
1.555;-9.5547;0.2963;19255;2021-05-03 15:09:56:547
1.4305;-9.6947;0.4232;19305;2021-05-03 15:09:56:597
1.4305;-9.6947;0.4232;19355;2021-05-03 15:09:56:647
1.4563;-9.6786;0.3938;19404;2021-05-03 15:09:56:696
1.3611;-9.6905;0.2664;19454;2021-05-03 15:09:56:746
1.479;-9.6528;0.2442;19505;2021-05-03 15:09:56:797
1.479;-9.6528;0.2442;19554;2021-05-03 15:09:56:846
1.6514;-9.6857;0.3502;19604;2021-05-03 15:09:56:896
1.5676;-9.6738;0.4178;19655;2021-05-03 15:09:56:947
1.5676;-9.6738;0.4178;19705;2021-05-03 15:09:56:997
1.4736;-9.681;0.3903;19755;2021-05-03 15:09:57:047
1.4605;-9.6409;0.4046;19805;2021-05-03 15:09:57:097
1.5263;-9.6875;0.395;19855;2021-05-03 15:09:57:147
1.5263;-9.6875;0.395;19905;2021-05-03 15:09:57:197
1.4928;-9.6624;0.313;19955;2021-05-03 15:09:57:247
1.4126;-9.6959;0.2753;20005;2021-05-03 15:09:57:297
1.4126;-9.6959;0.2753;20055;2021-05-03 15:09:57:347
1.3252;-9.6822;0.2586;20105;2021-05-03 15:09:57:397
1.5658;-9.6588;0.349;20155;2021-05-03 15:09:57:447
1.6328;-9.6768;0.4088;20205;2021-05-03 15:09:57:497
1.6328;-9.6768;0.4088;20255;2021-05-03 15:09:57:547
1.4377;-9.6732;0.413;20305;2021-05-03 15:09:57:597
1.3443;-9.7013;0.3729;20355;2021-05-03 15:09:57:647
1.3443;-9.7013;0.3729;20405;2021-05-03 15:09:57:697
1.4162;-9.6977;0.3591;20455;2021-05-03 15:09:57:747
1.4617;-9.6744;0.4351;20505;2021-05-03 15:09:57:797
1.4317;-9.6738;0.4495;20555;2021-05-03 15:09:57:847
1.4317;-9.6738;0.4495;20605;2021-05-03 15:09:57:897
1.3856;-9.7079;0.4543;20655;2021-05-03 15:09:57:947
1.4042;-9.6756;0.4495;20705;2021-05-03 15:09:57:997
1.4042;-9.6756;0.4495;20754;2021-05-03 15:09:58:046
1.388;-9.6618;0.4334;20805;2021-05-03 15:09:58:097
1.3761;-9.6935;0.4064;20855;2021-05-03 15:09:58:147
1.3946;-9.6863;0.3747;20905;2021-05-03 15:09:58:197
1.3946;-9.6863;0.3747;20955;2021-05-03 15:09:58:247
1.4186;-9.6816;0.4369;21005;2021-05-03 15:09:58:297
1.2929;-9.666;0.4741;21055;2021-05-03 15:09:58:347
1.2929;-9.666;0.4741;21105;2021-05-03 15:09:58:397
1.2031;-9.7145;0.4615;21155;2021-05-03 15:09:58:447
1.1971;-9.73;0.3974;21205;2021-05-03 15:09:58:497
1.1971;-9.73;0.3974;21255;2021-05-03 15:09:58:547
1.3348;-9.6786;0.4214;21305;2021-05-03 15:09:58:597
1.3653;-9.6959;0.4878;21354;2021-05-03 15:09:58:646
1.312;-9.6881;0.5219;21404;2021-05-03 15:09:58:696
1.312;-9.6881;0.5219;21455;2021-05-03 15:09:58:747
1.2522;-9.6929;0.5716;21505;2021-05-03 15:09:58:797
1.1893;-9.763;0.5249;21555;2021-05-03 15:09:58:847
1.1893;-9.763;0.5249;21605;2021-05-03 15:09:58:897
1.1893;-9.7163;0.4507;21655;2021-05-03 15:09:58:947
1.154;-9.7109;0.4304;21706;2021-05-03 15:09:58:998
1.1103;-9.7342;0.4363;21755;2021-05-03 15:09:59:047
1.1103;-9.7342;0.4363;21805;2021-05-03 15:09:59:097
1.1815;-9.7205;0.4705;21855;2021-05-03 15:09:59:147
1.1642;-9.6774;0.4896;21905;2021-05-03 15:09:59:197
1.1642;-9.6774;0.4896;21954;2021-05-03 15:09:59:246
1.1929;-9.7031;0.5381;22005;2021-05-03 15:09:59:297
1.2516;-9.7498;0.5393;22055;2021-05-03 15:09:59:347
1.3282;-9.6642;0.498;22105;2021-05-03 15:09:59:397
1.3282;-9.6642;0.498;22154;2021-05-03 15:09:59:446
1.3827;-9.7145;0.571;22205;2021-05-03 15:09:59:497
1.2797;-9.6786;0.6177;22255;2021-05-03 15:09:59:547
1.2797;-9.6786;0.6177;22305;2021-05-03 15:09:59:597
1.2965;-9.7342;0.5914;22355;2021-05-03 15:09:59:647
1.3012;-9.669;0.5243;22405;2021-05-03 15:09:59:697
1.2833;-9.7055;0.5441;22454;2021-05-03 15:09:59:746
1.2833;-9.7055;0.5441;22505;2021-05-03 15:09:59:797
1.2869;-9.7211;0.5531;22555;2021-05-03 15:09:59:847
1.2755;-9.6672;0.5608;22605;2021-05-03 15:09:59:897
1.2755;-9.6672;0.5608;22655;2021-05-03 15:09:59:947
1.2905;-9.7001;0.586;22705;2021-05-03 15:09:59:997
1.3192;-9.6708;0.5818;22755;2021-05-03 15:10:00:047
1.3946;-9.6516;0.5902;22805;2021-05-03 15:10:00:097
1.3946;-9.6516;0.5902;22855;2021-05-03 15:10:00:147
1.391;-9.6744;0.5986;22905;2021-05-03 15:10:00:197
1.327;-9.6804;0.5836;22955;2021-05-03 15:10:00:247
1.327;-9.6804;0.5836;23005;2021-05-03 15:10:00:297
1.3593;-9.6816;0.5824;23055;2021-05-03 15:10:00:347
1.3958;-9.6265;0.6207;23105;2021-05-03 15:10:00:397
1.4533;-9.7001;0.5902;23154;2021-05-03 15:10:00:446
1.4533;-9.7001;0.5902;23205;2021-05-03 15:10:00:497
1.4509;-9.6522;0.5273;23255;2021-05-03 15:10:00:547
1.4688;-9.6648;0.5058;23305;2021-05-03 15:10:00:597
1.4688;-9.6648;0.5058;23355;2021-05-03 15:10:00:647
1.5838;-9.6576;0.5417;23405;2021-05-03 15:10:00:697
1.5586;-9.6528;0.6506;23455;2021-05-03 15:10:00:747
1.5455;-9.6013;0.6746;23505;2021-05-03 15:10:00:797
1.5455;-9.6013;0.6746;23555;2021-05-03 15:10:00:847
1.5329;-9.6361;0.6518;23605;2021-05-03 15:10:00:897
1.4563;-9.6313;0.5584;23655;2021-05-03 15:10:00:947
1.4563;-9.6313;0.5584;23705;2021-05-03 15:10:00:997
1.2677;-9.7935;0.5393;23755;2021-05-03 15:10:01:047
1.491;-9.6486;0.6027;23805;2021-05-03 15:10:01:097
1.4868;-9.7588;0.1083;23855;2021-05-03 15:10:01:147
1.4868;-9.7588;0.1083;23905;2021-05-03 15:10:01:197
1.4192;-9.7199;0.231;23955;2021-05-03 15:10:01:247
1.7154;-9.6696;0.3938;24005;2021-05-03 15:10:01:297
1.7154;-9.6696;0.3938;24055;2021-05-03 15:10:01:347
1.4006;-9.6642;0.407;24105;2021-05-03 15:10:01:397
1.3384;-9.5343;0.4579;24155;2021-05-03 15:10:01:447
1.3384;-9.5343;0.4579;24204;2021-05-03 15:10:01:496
1.1558;-9.8659;0.6009;24255;2021-05-03 15:10:01:547
1.1355;-9.6965;0.4998;24305;2021-05-03 15:10:01:597
1.4281;-9.7103;0.3286;24355;2021-05-03 15:10:01:647
1.4281;-9.7103;0.3286;24404;2021-05-03 15:10:01:696
1.7005;-9.5726;-0.0126;24455;2021-05-03 15:10:01:747
1.0331;-9.979;0.1927;24505;2021-05-03 15:10:01:797
1.0331;-9.979;0.1927;24554;2021-05-03 15:10:01:846
1.175;-9.7145;0.5309;24605;2021-05-03 15:10:01:897
1.5095;-9.7163;0.6189;24655;2021-05-03 15:10:01:947
1.3108;-9.8384;0.4675;24705;2021-05-03 15:10:01:997
1.3108;-9.8384;0.4675;24755;2021-05-03 15:10:02:047
1.3126;-9.6055;0.726;24805;2021-05-03 15:10:02:097
1.6873;-9.5277;0.8158;24855;2021-05-03 15:10:02:147
1.6873;-9.5277;0.8158;24905;2021-05-03 15:10:02:197
1.2743;-9.7264;0.5866;24955;2021-05-03 15:10:02:247
0.996;-9.7318;0.161;25005;2021-05-03 15:10:02:297
1.4545;-9.7031;-0.0401;25055;2021-05-03 15:10:02:347
1.4545;-9.7031;-0.0401;25105;2021-05-03 15:10:02:397
1.652;-9.5642;0.5441;25155;2021-05-03 15:10:02:447
1.1785;-9.8294;0.6267;25205;2021-05-03 15:10:02:497
1.1785;-9.8294;0.6267;25255;2021-05-03 15:10:02:547
1.3425;-9.6277;0.2394;25305;2021-05-03 15:10:02:597
1.7208;-9.6839;0.4519;25354;2021-05-03 15:10:02:646
1.4611;-9.599;0.5674;25405;2021-05-03 15:10:02:697
1.4611;-9.599;0.5674;25455;2021-05-03 15:10:02:747
1.154;-9.6959;0.4579;25505;2021-05-03 15:10:02:797
1.4629;-9.6822;0.1676;25554;2021-05-03 15:10:02:846
1.4629;-9.6822;0.1676;25605;2021-05-03 15:10:02:897
1.8028;-9.6917;0.3597;25655;2021-05-03 15:10:02:947
1.7729;-9.6241;0.6422;25705;2021-05-03 15:10:02:997
1.5185;-9.6792;0.6327;25755;2021-05-03 15:10:03:047
1.5185;-9.6792;0.6327;25804;2021-05-03 15:10:03:096
1.3312;-9.7019;0.3986;25855;2021-05-03 15:10:03:147
1.5652;-9.6301;0.3346;25905;2021-05-03 15:10:03:197
1.5652;-9.6301;0.3346;25955;2021-05-03 15:10:03:247
1.5083;-9.6618;0.5118;26004;2021-05-03 15:10:03:296
1.506;-9.6672;0.598;26055;2021-05-03 15:10:03:347
1.3138;-9.645;0.5584;26105;2021-05-03 15:10:03:397
1.3138;-9.645;0.5584;26154;2021-05-03 15:10:03:446
1.2198;-9.7665;0.34;26204;2021-05-03 15:10:03:496
1.6514;-9.6205;0.34;26255;2021-05-03 15:10:03:547
1.6514;-9.6205;0.34;26305;2021-05-03 15:10:03:597
1.8633;-9.7408;0.4752;26355;2021-05-03 15:10:03:647
1.2067;-9.566;0.346;26405;2021-05-03 15:10:03:697
1.2324;-9.763;0.2933;26455;2021-05-03 15:10:03:747
1.2324;-9.763;0.2933;26505;2021-05-03 15:10:03:797
1.7496;-9.663;0.4363;26554;2021-05-03 15:10:03:846
1.5664;-9.6516;0.5094;26605;2021-05-03 15:10:03:897
1.5664;-9.6516;0.5094;26655;2021-05-03 15:10:03:947
1.3443;-9.6917;0.3142;26705;2021-05-03 15:10:03:997
1.5742;-9.6857;0.3651;26755;2021-05-03 15:10:04:047
1.6334;-9.6289;0.5884;26805;2021-05-03 15:10:04:097
1.6334;-9.6289;0.5884;26855;2021-05-03 15:10:04:147
1.6783;-9.6385;0.6464;26905;2021-05-03 15:10:04:197
1.4497;-9.6552;0.5507;26955;2021-05-03 15:10:04:247
1.4497;-9.6552;0.5507;27005;2021-05-03 15:10:04:297
1.5311;-9.7007;0.4178;27055;2021-05-03 15:10:04:347
1.5951;-9.648;0.3687;27105;2021-05-03 15:10:04:397
1.7071;-9.6259;0.5261;27155;2021-05-03 15:10:04:447
1.7071;-9.6259;0.5261;27205;2021-05-03 15:10:04:497
1.4862;-9.7336;0.6009;27255;2021-05-03 15:10:04:547
1.5628;-9.5894;0.4531;27305;2021-05-03 15:10:04:597
1.5628;-9.5894;0.4531;27355;2021-05-03 15:10:04:647
1.6478;-9.6618;0.4848;27405;2021-05-03 15:10:04:697
1.6819;-9.5996;0.6195;27455;2021-05-03 15:10:04:747
1.6819;-9.5996;0.6195;27505;2021-05-03 15:10:04:797
1.5125;-9.7103;0.5507;27555;2021-05-03 15:10:04:847
1.5036;-9.6426;0.3406;27605;2021-05-03 15:10:04:897
1.555;-9.7211;0.3938;27655;2021-05-03 15:10:04:947
1.555;-9.7211;0.3938;27705;2021-05-03 15:10:04:997
1.6382;-9.6019;0.562;27755;2021-05-03 15:10:05:047
1.485;-9.6522;0.6566;27804;2021-05-03 15:10:05:096
1.485;-9.6522;0.6566;27855;2021-05-03 15:10:05:147
1.5036;-9.6804;0.5124;27905;2021-05-03 15:10:05:197
1.5089;-9.6648;0.3083;27955;2021-05-03 15:10:05:247
1.558;-9.7163;0.2777;28004;2021-05-03 15:10:05:296
1.558;-9.7163;0.2777;28055;2021-05-03 15:10:05:347
1.7136;-9.6295;0.5022;28105;2021-05-03 15:10:05:397
1.5191;-9.6696;0.5991;28155;2021-05-03 15:10:05:447
1.5191;-9.6696;0.5991;28205;2021-05-03 15:10:05:497
1.6287;-9.6067;0.486;28254;2021-05-03 15:10:05:546
1.5676;-9.6678;0.3992;28304;2021-05-03 15:10:05:596
1.4341;-9.6379;0.337;28355;2021-05-03 15:10:05:647
1.4341;-9.6379;0.337;28405;2021-05-03 15:10:05:697
1.5275;-9.6588;0.4752;28455;2021-05-03 15:10:05:747
1.643;-9.7444;0.5076;28505;2021-05-03 15:10:05:797
1.643;-9.7444;0.5076;28555;2021-05-03 15:10:05:847
1.8914;-9.5666;0.3448;28605;2021-05-03 15:10:05:897
1.6658;-9.6205;0.4028;28655;2021-05-03 15:10:05:947
1.2426;-9.7246;0.5908;28705;2021-05-03 15:10:05:997
1.2426;-9.7246;0.5908;28755;2021-05-03 15:10:06:047
1.6029;-9.6726;0.4417;28805;2021-05-03 15:10:06:097
1.6843;-9.6337;0.4076;28855;2021-05-03 15:10:06:147
1.6843;-9.6337;0.4076;28905;2021-05-03 15:10:06:197
1.5293;-9.6738;0.4764;28954;2021-05-03 15:10:06:246
1.658;-9.6468;0.4782;29005;2021-05-03 15:10:06:297
1.4569;-9.6468;0.4256;29055;2021-05-03 15:10:06:347
1.4569;-9.6468;0.4256;29104;2021-05-03 15:10:06:396
1.4461;-9.6696;0.3316;29155;2021-05-03 15:10:06:447
1.7418;-9.6438;0.3753;29205;2021-05-03 15:10:06:497
1.7418;-9.6438;0.3753;29254;2021-05-03 15:10:06:546
1.4545;-9.6397;0.3519;29305;2021-05-03 15:10:06:597
1.4664;-9.7031;0.4172;29355;2021-05-03 15:10:06:647
1.6909;-9.6157;0.5471;29405;2021-05-03 15:10:06:697
1.6909;-9.6157;0.5471;29454;2021-05-03 15:10:06:746
1.6945;-9.6265;0.6279;29505;2021-05-03 15:10:06:797
1.7166;-9.6385;0.6321;29555;2021-05-03 15:10:06:847
1.7166;-9.6385;0.6321;29605;2021-05-03 15:10:06:897
1.4413;-9.6546;0.6051;29655;2021-05-03 15:10:06:947
1.2941;-9.7127;0.4477;29705;2021-05-03 15:10:06:997
1.4401;-9.6618;0.416;29754;2021-05-03 15:10:07:046
1.4401;-9.6618;0.416;29805;2021-05-03 15:10:07:097
1.6065;-9.6774;0.6363;29855;2021-05-03 15:10:07:147
1.6245;-9.7977;0.759;29905;2021-05-03 15:10:07:197
1.6245;-9.7977;0.759;29954;2021-05-03 15:10:07:246
1.5365;-9.4906;0.6638;30005;2021-05-03 15:10:07:297
1.4706;-9.6768;0.6003;30055;2021-05-03 15:10:07:347
1.4527;-9.7211;0.5034;30105;2021-05-03 15:10:07:397
1.4527;-9.7211;0.5034;30155;2021-05-03 15:10:07:447
1.6496;-9.642;0.5405;30205;2021-05-03 15:10:07:497
1.646;-9.6205;0.6183;30254;2021-05-03 15:10:07:546
1.646;-9.6205;0.6183;30305;2021-05-03 15:10:07:597
1.5323;-9.6792;0.6656;30355;2021-05-03 15:10:07:647
1.4617;-9.6391;0.6387;30405;2021-05-03 15:10:07:697
1.4617;-9.6391;0.6387;30455;2021-05-03 15:10:07:747
1.5455;-9.6528;0.668;30504;2021-05-03 15:10:07:796
1.6269;-9.6636;0.7081;30554;2021-05-03 15:10:07:846
1.4599;-9.6397;0.68;30605;2021-05-03 15:10:07:897
1.4599;-9.6397;0.68;30655;2021-05-03 15:10:07:947
1.3425;-9.7402;0.5956;30704;2021-05-03 15:10:07:996
1.5479;-9.6091;0.5483;30755;2021-05-03 15:10:08:047
1.5479;-9.6091;0.5483;30805;2021-05-03 15:10:08:097
1.576;-9.6732;0.5932;30855;2021-05-03 15:10:08:147
1.4653;-9.681;0.5698;30905;2021-05-03 15:10:08:197
1.4263;-9.6468;0.5549;30955;2021-05-03 15:10:08:247
1.4263;-9.6468;0.5549;31005;2021-05-03 15:10:08:297
1.47;-9.6911;0.6171;31055;2021-05-03 15:10:08:347
1.4138;-9.6534;0.6171;31105;2021-05-03 15:10:08:397
1.4138;-9.6534;0.6171;31155;2021-05-03 15:10:08:447
1.3904;-9.6917;0.5315;31205;2021-05-03 15:10:08:497
1.4742;-9.6492;0.5183;31255;2021-05-03 15:10:08:547
1.5006;-9.6947;0.6225;31305;2021-05-03 15:10:08:597
1.5006;-9.6947;0.6225;31355;2021-05-03 15:10:08:647
1.4018;-9.6726;0.592;31405;2021-05-03 15:10:08:697
1.3647;-9.6756;0.5118;31455;2021-05-03 15:10:08:747
1.3647;-9.6756;0.5118;31505;2021-05-03 15:10:08:797
1.3695;-9.6935;0.4741;31555;2021-05-03 15:10:08:847
1.4952;-9.6995;0.4615;31605;2021-05-03 15:10:08:897
1.394;-9.6684;0.5602;31655;2021-05-03 15:10:08:947
1.394;-9.6684;0.5602;31705;2021-05-03 15:10:08:997
1.3503;-9.7025;0.6099;31755;2021-05-03 15:10:09:047
1.4024;-9.6474;0.6009;31805;2021-05-03 15:10:09:097
1.4024;-9.6474;0.6009;31855;2021-05-03 15:10:09:147
1.4976;-9.6516;0.6195;31904;2021-05-03 15:10:09:196
1.4275;-9.6833;0.5716;31955;2021-05-03 15:10:09:247
1.3749;-9.6905;0.4657;32005;2021-05-03 15:10:09:297
1.3749;-9.6905;0.4657;32054;2021-05-03 15:10:09:346
1.4246;-9.6863;0.4375;32105;2021-05-03 15:10:09:397
1.394;-9.6546;0.5076;32155;2021-05-03 15:10:09:447
1.394;-9.6546;0.5076;32205;2021-05-03 15:10:09:497
1.476;-9.7175;0.5297;32255;2021-05-03 15:10:09:547
1.4934;-9.6474;0.5327;32305;2021-05-03 15:10:09:597
1.47;-9.6887;0.5381;32355;2021-05-03 15:10:09:647
1.47;-9.6887;0.5381;32405;2021-05-03 15:10:09:697
1.582;-9.6546;0.5405;32454;2021-05-03 15:10:09:746
1.4676;-9.7067;0.5315;32504;2021-05-03 15:10:09:796
1.4676;-9.7067;0.5315;32555;2021-05-03 15:10:09:847
1.3605;-9.6241;0.4453;32605;2021-05-03 15:10:09:897
1.2312;-9.6935;0.4052;32654;2021-05-03 15:10:09:946
1.4623;-9.7396;0.4974;32705;2021-05-03 15:10:09:997
1.4623;-9.7396;0.4974;32755;2021-05-03 15:10:10:047
1.7514;-9.5882;0.5567;32805;2021-05-03 15:10:10:097
1.576;-9.6552;0.5088;32854;2021-05-03 15:10:10:146
1.576;-9.6552;0.5088;32905;2021-05-03 15:10:10:197
1.2228;-9.7438;0.3555;32955;2021-05-03 15:10:10:247
1.2372;-9.7205;0.2292;33004;2021-05-03 15:10:10:296
1.5281;-9.6534;0.3298;33054;2021-05-03 15:10:10:346
1.5281;-9.6534;0.3298;33105;2021-05-03 15:10:10:397
1.5323;-9.6409;0.5249;33155;2021-05-03 15:10:10:447
1.4766;-9.6762;0.5674;33205;2021-05-03 15:10:10:497
1.4766;-9.6762;0.5674;33255;2021-05-03 15:10:10:547
1.3599;-9.6857;0.4609;33305;2021-05-03 15:10:10:597
1.3665;-9.6983;0.3154;33355;2021-05-03 15:10:10:647
1.4946;-9.6612;0.4268;33405;2021-05-03 15:10:10:697
1.4946;-9.6612;0.4268;33454;2021-05-03 15:10:10:746
1.5179;-9.648;0.5561;33505;2021-05-03 15:10:10:797
1.4497;-9.6714;0.4884;33555;2021-05-03 15:10:10:847
1.4497;-9.6714;0.4884;33605;2021-05-03 15:10:10:897
1.3617;-9.6827;0.3615;33655;2021-05-03 15:10:10:947
1.318;-9.663;0.3585;33705;2021-05-03 15:10:10:997
1.318;-9.663;0.3585;33755;2021-05-03 15:10:11:047
1.5054;-9.6887;0.5201;33805;2021-05-03 15:10:11:097
1.2169;-9.6534;0.51;33855;2021-05-03 15:10:11:147
1.1193;-9.7833;0.4148;33905;2021-05-03 15:10:11:197
1.1193;-9.7833;0.4148;33955;2021-05-03 15:10:11:247
1.23;-9.6738;0.4214;34005;2021-05-03 15:10:11:297
1.1079;-9.6732;0.5794;34055;2021-05-03 15:10:11:347
1.1079;-9.6732;0.5794;34105;2021-05-03 15:10:11:397
1.1983;-9.8144;0.6512;34154;2021-05-03 15:10:11:446
1.1444;-9.6875;0.4483;34204;2021-05-03 15:10:11:496
0.9134;-9.727;0.3789;34255;2021-05-03 15:10:11:547
0.9134;-9.727;0.3789;34305;2021-05-03 15:10:11:597
0.7392;-9.909;0.5225;34355;2021-05-03 15:10:11:647
0.6812;-9.7474;0.7673;34405;2021-05-03 15:10:11:697
0.6812;-9.7474;0.7673;34455;2021-05-03 15:10:11:747
0.7368;-9.6959;0.6919;34505;2021-05-03 15:10:11:797
0.9691;-9.7582;0.5363;34555;2021-05-03 15:10:11:847
0.8763;-9.8593;0.3645;34605;2021-05-03 15:10:11:897
0.8763;-9.8593;0.3645;34655;2021-05-03 15:10:11:947
0.8481;-9.7689;0.2921;34705;2021-05-03 15:10:11:997
1.3838;-9.7336;0.3597;34755;2021-05-03 15:10:12:047
1.3838;-9.7336;0.3597;34805;2021-05-03 15:10:12:097
0.8733;-9.8174;0.5441;34855;2021-05-03 15:10:12:147
0.9571;-9.6833;0.826;34905;2021-05-03 15:10:12:197
1.9501;-9.7953;0.592;34955;2021-05-03 15:10:12:247
1.9501;-9.7953;0.592;35005;2021-05-03 15:10:12:297
1.7328;-9.6833;0.5387;35055;2021-05-03 15:10:12:347
2.1506;-9.6546;0.4471;35105;2021-05-03 15:10:12:397
2.1506;-9.6546;0.4471;35155;2021-05-03 15:10:12:447
2.3721;-9.6091;0.2005;35205;2021-05-03 15:10:12:497
1.9363;-9.5487;-0.0389;35255;2021-05-03 15:10:12:547
1.7041;-9.593;0.2053;35305;2021-05-03 15:10:12:597
1.7041;-9.593;0.2053;35355;2021-05-03 15:10:12:647
2.1847;-9.5379;0.2699;35405;2021-05-03 15:10:12:697
2.1991;-9.5822;0.073;35455;2021-05-03 15:10:12:747
2.1991;-9.5822;0.073;35505;2021-05-03 15:10:12:797
2.1943;-9.323;0.0652;35555;2021-05-03 15:10:12:847
2.721;-9.4804;0.2604;35605;2021-05-03 15:10:12:897
2.5349;-9.1662;-0.2185;35655;2021-05-03 15:10:12:947
2.5349;-9.1662;-0.2185;35705;2021-05-03 15:10:12:997
1.6508;-9.8408;-0.8039;35755;2021-05-03 15:10:13:047
2.0806;-9.678;-0.0192;35804;2021-05-03 15:10:13:096
2.0806;-9.678;-0.0192;35855;2021-05-03 15:10:13:147
2.3296;-9.3099;-0.0168;35905;2021-05-03 15:10:13:197
2.3649;-9.5397;-0.085;35955;2021-05-03 15:10:13:247
2.4181;-9.3619;-0.2987;36005;2021-05-03 15:10:13:297
2.4181;-9.3619;-0.2987;36055;2021-05-03 15:10:13:347
2.2081;-9.4361;-0.3956;36105;2021-05-03 15:10:13:397
2.399;-9.2404;0.2496;36155;2021-05-03 15:10:13:447
2.399;-9.2404;0.2496;36205;2021-05-03 15:10:13:497
2.7695;-9.7079;0.2921;36255;2021-05-03 15:10:13:547
1.7478;-9.6756;-0.6782;36305;2021-05-03 15:10:13:597
2.3409;-9.3919;-0.2245;36354;2021-05-03 15:10:13:646
2.3409;-9.3919;-0.2245;36404;2021-05-03 15:10:13:696
2.9341;-9.265;0.416;36455;2021-05-03 15:10:13:747
1.5556;-9.5253;-0.0269;36505;2021-05-03 15:10:13:797
1.5556;-9.5253;-0.0269;36555;2021-05-03 15:10:13:847
1.1606;-9.4721;-0.0335;36605;2021-05-03 15:10:13:897
2.7635;-9.4385;0.5429;36655;2021-05-03 15:10:13:947
2.3786;-9.7456;0.2646;36705;2021-05-03 15:10:13:997
2.3786;-9.7456;0.2646;36754;2021-05-03 15:10:14:046
1.7484;-9.6426;-0.2203;36805;2021-05-03 15:10:14:097
1.8974;-9.6666;0.4316;36855;2021-05-03 15:10:14:147
1.8974;-9.6666;0.4316;36905;2021-05-03 15:10:14:197
1.5826;-9.6965;0.7248;36955;2021-05-03 15:10:14:247
1.0271;-9.6965;0.5459;37005;2021-05-03 15:10:14:297
1.1205;-9.9311;0.5794;37055;2021-05-03 15:10:14:347
1.1205;-9.9311;0.5794;37105;2021-05-03 15:10:14:397
1.3168;-9.8031;0.6614;37155;2021-05-03 15:10:14:447
1.0337;-9.7941;0.6129;37205;2021-05-03 15:10:14:497
1.0337;-9.7941;0.6129;37255;2021-05-03 15:10:14:547
1.1791;-9.7115;0.5788;37305;2021-05-03 15:10:14:597
0.9313;-9.824;0.5022;37354;2021-05-03 15:10:14:646
0.9313;-9.824;0.8182;37405;2021-05-03 15:10:14:697
0.7913;-9.8174;0.8182;37455;2021-05-03 15:10:14:747
1.5957;-9.6295;0.8134;37505;2021-05-03 15:10:14:797
1.2971;-9.6953;0.7015;37555;2021-05-03 15:10:14:847
1.2971;-9.6953;0.7015;37605;2021-05-03 15:10:14:897
1.087;-9.7719;0.4507;37655;2021-05-03 15:10:14:947
1.3892;-9.7767;0.5273;37705;2021-05-03 15:10:14:997
1.3892;-9.7767;0.5273;37755;2021-05-03 15:10:15:047
1.6879;-9.6444;0.3124;37805;2021-05-03 15:10:15:097
1.576;-9.6253;0.3071;37855;2021-05-03 15:10:15:147
1.8148;-9.4918;0.5453;37905;2021-05-03 15:10:15:197
1.8148;-9.4918;0.5453;37955;2021-05-03 15:10:15:247
1.4257;-9.7246;0.3938;38005;2021-05-03 15:10:15:297
1.7951;-9.642;0.3334;38055;2021-05-03 15:10:15:347
1.7951;-9.642;0.3334;38105;2021-05-03 15:10:15:397
1.7148;-9.6067;0.2538;38155;2021-05-03 15:10:15:447
1.7148;-9.6409;0.3041;38205;2021-05-03 15:10:15:497
1.7915;-9.6061;0.3753;38255;2021-05-03 15:10:15:547
1.7915;-9.6061;0.3753;38305;2021-05-03 15:10:15:597
1.6418;-9.6205;0.4525;38355;2021-05-03 15:10:15:647
1.7915;-9.6564;0.4274;38405;2021-05-03 15:10:15:697
1.7915;-9.6564;0.4274;38454;2021-05-03 15:10:15:746
1.6532;-9.6289;0.3567;38505;2021-05-03 15:10:15:797
1.5868;-9.6373;0.3777;38555;2021-05-03 15:10:15:847
1.5808;-9.666;0.4052;38605;2021-05-03 15:10:15:897
1.5808;-9.666;0.4052;38654;2021-05-03 15:10:15:946
1.5383;-9.6403;0.3639;38705;2021-05-03 15:10:15:997
1.5245;-9.6672;0.3172;38755;2021-05-03 15:10:16:047
1.5245;-9.6672;0.3172;38805;2021-05-03 15:10:16:097
1.5574;-9.6732;0.3615;38855;2021-05-03 15:10:16:147
1.4706;-9.6672;0.4268;38905;2021-05-03 15:10:16:197
1.5048;-9.7396;0.4022;38955;2021-05-03 15:10:16:247
1.5048;-9.7396;0.4022;39005;2021-05-03 15:10:16:297
1.4814;-9.6468;0.3944;39055;2021-05-03 15:10:16:347
1.5969;-9.7025;0.4687;39105;2021-05-03 15:10:16:397
1.5969;-9.7025;0.4687;39155;2021-05-03 15:10:16:447
1.6436;-9.6474;0.4711;39205;2021-05-03 15:10:16:497
1.4359;-9.6863;0.3879;39254;2021-05-03 15:10:16:546
1.3785;-9.7288;0.3394;39305;2021-05-03 15:10:16:597
1.3785;-9.7288;0.3394;39355;2021-05-03 15:10:16:647
1.3402;-9.7223;0.4555;39405;2021-05-03 15:10:16:697
1.2761;-9.6163;0.4166;39455;2021-05-03 15:10:16:747
1.2761;-9.6163;0.4166;39505;2021-05-03 15:10:16:797
1.3892;-9.6762;0.3118;39555;2021-05-03 15:10:16:847
1.412;-9.7246;0.1844;39605;2021-05-03 15:10:16:897
1.3713;-9.7115;0.1275;39654;2021-05-03 15:10:16:946
1.3713;-9.7115;0.1275;39705;2021-05-03 15:10:16:997
1.4036;-9.5978;0.3843;39755;2021-05-03 15:10:17:047
1.4647;-9.672;0.5459;39805;2021-05-03 15:10:17:097
1.4647;-9.672;0.5459;39855;2021-05-03 15:10:17:147
1.3216;-9.7402;0.3956;39905;2021-05-03 15:10:17:197
1.5269;-9.6379;0.3633;39955;2021-05-03 15:10:17:247
1.2659;-9.6881;0.3603;40005;2021-05-03 15:10:17:297
1.2659;-9.6881;0.3603;40055;2021-05-03 15:10:17:347
1.3282;-9.7839;0.2693;40105;2021-05-03 15:10:17:397
1.5508;-9.6301;0.3268;40155;2021-05-03 15:10:17:447
1.5508;-9.6301;0.3268;40205;2021-05-03 15:10:17:497
1.2186;-9.6684;0.4411;40255;2021-05-03 15:10:17:547
1.3066;-9.7767;0.3418;40305;2021-05-03 15:10:17:597
1.6125;-9.6259;0.3083;40355;2021-05-03 15:10:17:647
1.6125;-9.6259;0.3083;40405;2021-05-03 15:10:17:697
1.2743;-9.6744;0.419;40455;2021-05-03 15:10:17:747
1.1355;-9.754;0.3346;40505;2021-05-03 15:10:17:797
1.1355;-9.754;0.3346;40555;2021-05-03 15:10:17:847
1.467;-9.6959;0.2933;40605;2021-05-03 15:10:17:897
1.4964;-9.6289;0.4609;40655;2021-05-03 15:10:17:947
1.1851;-9.7546;0.4274;40704;2021-05-03 15:10:17:996
1.1851;-9.7546;0.4274;40755;2021-05-03 15:10:18:047
1.3749;-9.7067;0.2137;40805;2021-05-03 15:10:18:097
1.4994;-9.6397;0.3645;40855;2021-05-03 15:10:18:147
1.4994;-9.6397;0.3645;40904;2021-05-03 15:10:18:196
1.3479;-9.6947;0.5584;40955;2021-05-03 15:10:18:247
1.1684;-9.7558;0.4268;41005;2021-05-03 15:10:18:297
1.3563;-9.6546;0.3466;41055;2021-05-03 15:10:18:347
1.3563;-9.6546;0.3466;41105;2021-05-03 15:10:18:397
1.2276;-9.7378;0.3442;41155;2021-05-03 15:10:18:447
1.2695;-9.7163;0.319;41205;2021-05-03 15:10:18:497
1.2695;-9.7163;0.319;41255;2021-05-03 15:10:18:547
1.424;-9.6576;0.4669;41305;2021-05-03 15:10:18:597
1.2258;-9.7073;0.5249;41355;2021-05-03 15:10:18:647
1.2258;-9.7073;0.5249;41405;2021-05-03 15:10:18:697
1.3204;-9.733;0.4178;41455;2021-05-03 15:10:18:747
1.47;-9.6911;0.331;41505;2021-05-03 15:10:18:797
1.3731;-9.6624;0.4118;41555;2021-05-03 15:10:18:847
1.3731;-9.6624;0.4118;41605;2021-05-03 15:10:18:897
1.1456;-9.733;0.477;41655;2021-05-03 15:10:18:947
1.2342;-9.7378;0.416;41705;2021-05-03 15:10:18:997
1.2342;-9.7378;0.416;41755;2021-05-03 15:10:19:047
1.415;-9.6456;0.4932;41805;2021-05-03 15:10:19:097
1.421;-9.7199;0.5411;41855;2021-05-03 15:10:19:147
1.3892;-9.6666;0.4639;41905;2021-05-03 15:10:19:197
1.3892;-9.6666;0.4639;41955;2021-05-03 15:10:19:247
1.3156;-9.7067;0.3825;42005;2021-05-03 15:10:19:297
1.1821;-9.7211;0.3304;42055;2021-05-03 15:10:19:347
1.1821;-9.7211;0.3304;42105;2021-05-03 15:10:19:397
1.4132;-9.6792;0.4214;42155;2021-05-03 15:10:19:447
1.3695;-9.6426;0.4399;42205;2021-05-03 15:10:19:497
1.1001;-9.8156;0.2652;42255;2021-05-03 15:10:19:547
1.1001;-9.8156;0.2652;42305;2021-05-03 15:10:19:597
1.5658;-9.6582;0.4076;42355;2021-05-03 15:10:19:647
1.3976;-9.6774;0.6003;42404;2021-05-03 15:10:19:696
1.3976;-9.6774;0.6003;42455;2021-05-03 15:10:19:747
1.2462;-9.7264;0.4501;42505;2021-05-03 15:10:19:797
1.3372;-9.654;0.2897;42555;2021-05-03 15:10:19:847
1.4521;-9.7001;0.3998;42605;2021-05-03 15:10:19:897
1.4521;-9.7001;0.3998;42655;2021-05-03 15:10:19:947
1.2366;-9.7097;0.3783;42705;2021-05-03 15:10:19:997
1.3228;-9.6965;0.3262;42755;2021-05-03 15:10:20:047
1.3228;-9.6965;0.3262;42805;2021-05-03 15:10:20:097
1.5443;-9.681;0.3903;42855;2021-05-03 15:10:20:147
1.4222;-9.7043;0.3938;42905;2021-05-03 15:10:20:197
1.3563;-9.6373;0.398;42954;2021-05-03 15:10:20:246
1.3563;-9.6373;0.398;43005;2021-05-03 15:10:20:297
1.336;-9.6792;0.3424;43055;2021-05-03 15:10:20:347
1.491;-9.6732;0.3466;43105;2021-05-03 15:10:20:397
1.491;-9.6732;0.3466;43155;2021-05-03 15:10:20:447
1.4581;-9.6738;0.3508;43205;2021-05-03 15:10:20:497
1.4323;-9.7175;0.3861;43255;2021-05-03 15:10:20:547
1.4174;-9.6492;0.4244;43305;2021-05-03 15:10:20:597
1.4174;-9.6492;0.4244;43355;2021-05-03 15:10:20:647
1.5185;-9.6588;0.5249;43405;2021-05-03 15:10:20:697
1.5886;-9.7145;0.5004;43455;2021-05-03 15:10:20:747
1.5886;-9.7145;0.5004;43504;2021-05-03 15:10:20:796
1.4766;-9.6905;0.3071;43555;2021-05-03 15:10:20:847
1.4754;-9.6881;0.3172;43605;2021-05-03 15:10:20:897
1.716;-9.6426;0.5082;43655;2021-05-03 15:10:20:947
1.716;-9.6426;0.5082;43705;2021-05-03 15:10:20:997
1.5514;-9.5666;0.422;43755;2021-05-03 15:10:21:047
1.3192;-9.7246;0.2795;43805;2021-05-03 15:10:21:097
1.3192;-9.7246;0.2795;43855;2021-05-03 15:10:21:147
1.47;-9.7139;0.4208;43905;2021-05-03 15:10:21:197
1.5077;-9.6307;0.3286;43954;2021-05-03 15:10:21:246
1.4341;-9.7061;0.3376;44005;2021-05-03 15:10:21:297
1.4341;-9.7061;0.3376;44055;2021-05-03 15:10:21:347
1.5826;-9.6678;0.5668;44104;2021-05-03 15:10:21:396
1.5054;-9.7312;0.4387;44155;2021-05-03 15:10:21:447
1.5054;-9.7312;0.4387;44205;2021-05-03 15:10:21:497
1.6197;-9.6277;0.3142;44255;2021-05-03 15:10:21:547
1.4952;-9.7282;0.4531;44305;2021-05-03 15:10:21:597
1.4509;-9.6097;0.4477;44355;2021-05-03 15:10:21:647
1.4509;-9.6097;0.4477;44404;2021-05-03 15:10:21:696
1.4563;-9.7175;0.328;44454;2021-05-03 15:10:21:746
1.394;-9.6786;0.2292;44505;2021-05-03 15:10:21:797
1.394;-9.6786;0.2292;44555;2021-05-03 15:10:21:847
1.4287;-9.6618;0.264;44605;2021-05-03 15:10:21:897
1.3653;-9.6977;0.2837;44655;2021-05-03 15:10:21:947
1.4766;-9.6768;0.2891;44705;2021-05-03 15:10:21:997
1.4766;-9.6768;0.2891;44755;2021-05-03 15:10:22:047
1.4533;-9.6438;0.2927;44804;2021-05-03 15:10:22:096
1.4246;-9.7145;0.322;44854;2021-05-03 15:10:22:146
1.4246;-9.7145;0.322;44905;2021-05-03 15:10:22:197
1.5413;-9.6594;0.4699;44955;2021-05-03 15:10:22:247
1.418;-9.6594;0.4501;45005;2021-05-03 15:10:22:297
1.418;-9.6594;0.4501;45055;2021-05-03 15:10:22:347
1.4132;-9.7091;0.3657;45105;2021-05-03 15:10:22:397
1.4617;-9.6744;0.4657;45155;2021-05-03 15:10:22:447
1.5083;-9.6546;0.4531;45205;2021-05-03 15:10:22:497
1.5083;-9.6546;0.4531;45255;2021-05-03 15:10:22:547
1.412;-9.7103;0.3502;45305;2021-05-03 15:10:22:597
1.4982;-9.6965;0.3741;45355;2021-05-03 15:10:22:647
1.4982;-9.6965;0.3741;45405;2021-05-03 15:10:22:697
1.4503;-9.6552;0.4088;45455;2021-05-03 15:10:22:747
1.3892;-9.6857;0.3502;45505;2021-05-03 15:10:22:797
1.4575;-9.7145;0.319;45555;2021-05-03 15:10:22:847
1.4575;-9.7145;0.319;45604;2021-05-03 15:10:22:896
1.4832;-9.666;0.3525;45655;2021-05-03 15:10:22:947
1.4988;-9.6672;0.3986;45705;2021-05-03 15:10:22:997
1.4988;-9.6672;0.3986;45755;2021-05-03 15:10:23:047
1.4222;-9.7187;0.3184;45805;2021-05-03 15:10:23:097
1.5359;-9.6373;0.3699;45855;2021-05-03 15:10:23:147
1.4647;-9.6875;0.3825;45905;2021-05-03 15:10:23:197
1.4647;-9.6875;0.3825;45954;2021-05-03 15:10:23:246
1.5341;-9.6456;0.3968;46005;2021-05-03 15:10:23:297
1.3408;-9.6833;0.3921;46055;2021-05-03 15:10:23:347
1.3408;-9.6833;0.3921;46105;2021-05-03 15:10:23:397
1.5371;-9.6588;0.3591;46155;2021-05-03 15:10:23:447
1.3928;-9.7001;0.416;46205;2021-05-03 15:10:23:497
1.3192;-9.7103;0.3364;46255;2021-05-03 15:10:23:547
1.3192;-9.7103;0.3364;46305;2021-05-03 15:10:23:597
1.4138;-9.678;0.3849;46354;2021-05-03 15:10:23:646
1.2851;-9.7217;0.331;46405;2021-05-03 15:10:23:697
1.2851;-9.7217;0.331;46455;2021-05-03 15:10:23:747
1.4042;-9.6953;0.3322;46505;2021-05-03 15:10:23:797
1.4844;-9.6528;0.4621;46555;2021-05-03 15:10:23:847
1.3976;-9.6391;0.4208;46605;2021-05-03 15:10:23:897
1.3976;-9.6391;0.4208;46655;2021-05-03 15:10:23:947
1.324;-9.7378;0.3304;46705;2021-05-03 15:10:23:997
1.4928;-9.7079;0.3621;46755;2021-05-03 15:10:24:047
1.4928;-9.7079;0.3621;46804;2021-05-03 15:10:24:096
1.5131;-9.7079;0.4806;46855;2021-05-03 15:10:24:147
1.3713;-9.6678;0.48;46906;2021-05-03 15:10:24:198
1.4234;-9.657;0.4274;46954;2021-05-03 15:10:24:246
1.4234;-9.657;0.4274;47005;2021-05-03 15:10:24:297
1.2887;-9.7043;0.4339;47054;2021-05-03 15:10:24:346
1.3018;-9.6666;0.3166;47105;2021-05-03 15:10:24:397
1.3018;-9.6666;0.3166;47155;2021-05-03 15:10:24:447
1.3809;-9.7205;0.3304;47205;2021-05-03 15:10:24:497
1.321;-9.7043;0.4381;47255;2021-05-03 15:10:24:547
1.3653;-9.6816;0.4884;47305;2021-05-03 15:10:24:597
1.3653;-9.6816;0.4884;47355;2021-05-03 15:10:24:647
1.3791;-9.7121;0.486;47405;2021-05-03 15:10:24:697
1.5939;-9.6426;0.5848;47455;2021-05-03 15:10:24:747
1.5939;-9.6426;0.5848;47505;2021-05-03 15:10:24:797
1.4479;-9.6624;0.6153;47554;2021-05-03 15:10:24:846
1.0654;-9.754;0.319;47605;2021-05-03 15:10:24:897
1.2324;-9.7414;0.1945;47655;2021-05-03 15:10:24:947
1.2324;-9.7414;0.1945;47705;2021-05-03 15:10:24:997
1.3689;-9.6756;0.3974;47754;2021-05-03 15:10:25:046
1.257;-9.7019;0.398;47804;2021-05-03 15:10:25:096
1.257;-9.7019;0.398;47855;2021-05-03 15:10:25:147
1.2504;-9.6935;0.3202;47905;2021-05-03 15:10:25:197
1.1432;-9.7294;0.3699;47955;2021-05-03 15:10:25:247
1.3623;-9.7205;0.4268;48005;2021-05-03 15:10:25:297
1.3623;-9.7205;0.4268;48055;2021-05-03 15:10:25:347
1.2492;-9.6822;0.4693;48105;2021-05-03 15:10:25:397
1.0882;-9.7115;0.3735;48155;2021-05-03 15:10:25:447
1.0882;-9.7115;0.3735;48205;2021-05-03 15:10:25:497
1.2749;-9.6917;0.4184;48255;2021-05-03 15:10:25:547
1.2408;-9.7169;0.477;48304;2021-05-03 15:10:25:596
1.1899;-9.739;0.3986;48355;2021-05-03 15:10:25:647
1.1899;-9.739;0.3986;48405;2021-05-03 15:10:25:697
1.093;-9.6666;0.343;48455;2021-05-03 15:10:25:747
1.1935;-9.7558;0.4369;48505;2021-05-03 15:10:25:797
1.1935;-9.7558;0.4369;48555;2021-05-03 15:10:25:847
1.3683;-9.657;0.5441;48605;2021-05-03 15:10:25:897
1.2312;-9.7121;0.501;48655;2021-05-03 15:10:25:947
1.0552;-9.6869;0.422;48705;2021-05-03 15:10:25:997
1.0552;-9.6869;0.422;48755;2021-05-03 15:10:26:047
1.1097;-9.727;0.5321;48805;2021-05-03 15:10:26:097
1.2701;-9.7588;0.5435;48855;2021-05-03 15:10:26:147
1.2701;-9.7588;0.5435;48905;2021-05-03 15:10:26:197
1.3922;-9.6355;0.5339;48955;2021-05-03 15:10:26:247
1.3521;-9.6582;0.6524;49005;2021-05-03 15:10:26:297
1.3521;-9.6582;0.6524;49055;2021-05-03 15:10:26:347
1.151;-9.6456;0.6494;49104;2021-05-03 15:10:26:396
1.0361;-9.8749;0.5028;49155;2021-05-03 15:10:26:447
0.9876;-9.7384;0.3424;49205;2021-05-03 15:10:26:497
0.9876;-9.7384;0.3424;49254;2021-05-03 15:10:26:546
0.9613;-9.745;0.4136;49305;2021-05-03 15:10:26:597
1.1654;-9.6648;0.5213;49355;2021-05-03 15:10:26:647
1.1654;-9.6648;0.5213;49405;2021-05-03 15:10:26:697
1.3348;-9.6869;0.6369;49455;2021-05-03 15:10:26:747
1.2869;-9.7486;0.598;49505;2021-05-03 15:10:26:797
1.4066;-9.6564;0.5297;49555;2021-05-03 15:10:26:847
1.4066;-9.6564;0.5297;49605;2021-05-03 15:10:26:897
1.3072;-9.6839;0.5249;49655;2021-05-03 15:10:26:947
1.388;-9.7336;0.4447;49705;2021-05-03 15:10:26:997
1.388;-9.7336;0.4447;49754;2021-05-03 15:10:27:046
1.4162;-9.6403;0.5692;49805;2021-05-03 15:10:27:097
1.0534;-9.7594;0.5758;49855;2021-05-03 15:10:27:147
1.0409;-9.7725;0.3717;49905;2021-05-03 15:10:27:197
1.0409;-9.7725;0.3717;49955;2021-05-03 15:10:27:247
1.1402;-9.7019;0.2664;50005;2021-05-03 15:10:27:297
1.5915;-9.6822;0.4417;50055;2021-05-03 15:10:27:347
1.5915;-9.6822;0.4417;50105;2021-05-03 15:10:27:397
1.8525;-9.7001;0.5327;50155;2021-05-03 15:10:27:447
1.0217;-9.6612;0.3549;50205;2021-05-03 15:10:27:497
0.7332;-9.8055;0.1395;50255;2021-05-03 15:10:27:547
0.7332;-9.8055;0.1395;50305;2021-05-03 15:10:27:597
1.5568;-9.648;0.3304;50355;2021-05-03 15:10:27:647
1.3671;-9.6774;0.4675;50405;2021-05-03 15:10:27:697
1.3671;-9.6774;0.4675;50455;2021-05-03 15:10:27:747
1.4455;-9.6546;0.3855;50505;2021-05-03 15:10:27:797
1.4599;-9.7354;0.4495;50555;2021-05-03 15:10:27:847
1.5042;-9.6193;0.4902;50605;2021-05-03 15:10:27:897
1.5042;-9.6193;0.4902;50655;2021-05-03 15:10:27:947
1.3408;-9.7683;0.3825;50705;2021-05-03 15:10:27:997
1.3809;-9.6001;0.2963;50755;2021-05-03 15:10:28:047
1.3809;-9.6001;0.2963;50805;2021-05-03 15:10:28:097
1.47;-9.7827;0.4699;50855;2021-05-03 15:10:28:147
1.3072;-9.66;0.3095;50905;2021-05-03 15:10:28:197
1.494;-9.6636;0.337;50955;2021-05-03 15:10:28:247
1.494;-9.6636;0.337;51004;2021-05-03 15:10:28:296
1.64;-9.6504;0.504;51055;2021-05-03 15:10:28:347
1.5197;-9.6917;0.4292;51105;2021-05-03 15:10:28:397
1.5197;-9.6917;0.4292;51155;2021-05-03 15:10:28:447
1.5586;-9.645;0.4178;51204;2021-05-03 15:10:28:496
1.236;-9.7097;0.3705;51255;2021-05-03 15:10:28:547
1.4287;-9.6642;0.2855;51305;2021-05-03 15:10:28:597
1.4287;-9.6642;0.2855;51355;2021-05-03 15:10:28:647
1.467;-9.6738;0.4764;51405;2021-05-03 15:10:28:697
1.5054;-9.6911;0.4782;51455;2021-05-03 15:10:28:747
1.5054;-9.6911;0.4782;51505;2021-05-03 15:10:28:797
1.6137;-9.6007;0.4603;51555;2021-05-03 15:10:28:847
1.2204;-9.7258;0.3807;51605;2021-05-03 15:10:28:897
1.2109;-9.7342;0.1443;51654;2021-05-03 15:10:28:946
1.2109;-9.7342;0.1443;51705;2021-05-03 15:10:28:997
1.503;-9.6863;0.3855;51755;2021-05-03 15:10:29:047
1.8214;-9.6193;0.7009;51805;2021-05-03 15:10:29:097
1.8214;-9.6193;0.7009;51855;2021-05-03 15:10:29:147
1.4305;-9.6666;0.5968;51905;2021-05-03 15:10:29:197
1.142;-9.7576;0.2251;51955;2021-05-03 15:10:29:247
1.5419;-9.6307;0.3166;52004;2021-05-03 15:10:29:296
1.5419;-9.6307;0.3166;52055;2021-05-03 15:10:29:347
1.5137;-9.7288;0.5213;52105;2021-05-03 15:10:29:397
1.4593;-9.6564;0.4794;52155;2021-05-03 15:10:29:447
1.4593;-9.6564;0.4794;52205;2021-05-03 15:10:29:497
1.5048;-9.6385;0.5249;52255;2021-05-03 15:10:29:547
1.1684;-9.7294;0.4256;52305;2021-05-03 15:10:29:597
1.4521;-9.6917;0.4034;52355;2021-05-03 15:10:29:647
1.4521;-9.6917;0.4034;52405;2021-05-03 15:10:29:697
1.3988;-9.6612;0.6231;52455;2021-05-03 15:10:29:747
1.4132;-9.6959;0.5213;52505;2021-05-03 15:10:29:797
1.4132;-9.6959;0.5213;52555;2021-05-03 15:10:29:847
1.3282;-9.6971;0.3807;52605;2021-05-03 15:10:29:897
1.2175;-9.7079;0.41;52655;2021-05-03 15:10:29:947
1.2175;-9.7079;0.41;52705;2021-05-03 15:10:29:997
1.5227;-9.7007;0.4591;52755;2021-05-03 15:10:30:047
1.6041;-9.6193;0.6159;52804;2021-05-03 15:10:30:096
1.072;-9.7264;0.5315;52854;2021-05-03 15:10:30:146
1.072;-9.7264;0.5315;52905;2021-05-03 15:10:30:197
1.1624;-9.7067;0.3118;52955;2021-05-03 15:10:30:247
1.5413;-9.6786;0.5477;53004;2021-05-03 15:10:30:296
1.5413;-9.6786;0.5477;53055;2021-05-03 15:10:30:347
1.3587;-9.6612;0.6847;53105;2021-05-03 15:10:30:397
1.072;-9.7695;0.3478;53155;2021-05-03 15:10:30:447
1.4545;-9.7109;0.3268;53205;2021-05-03 15:10:30:497
1.4545;-9.7109;0.3268;53254;2021-05-03 15:10:30:546
1.5461;-9.6325;0.6584;53305;2021-05-03 15:10:30:597
1.2779;-9.7288;0.6949;53355;2021-05-03 15:10:30:647
1.2779;-9.7288;0.6949;53405;2021-05-03 15:10:30:697
1.3874;-9.6241;0.6039;53454;2021-05-03 15:10:30:746
1.0912;-9.763;0.4651;53505;2021-05-03 15:10:30:797
1.2037;-9.7217;0.2969;53555;2021-05-03 15:10:30:847
1.2037;-9.7217;0.2969;53605;2021-05-03 15:10:30:897
1.4246;-9.6247;0.4561;53655;2021-05-03 15:10:30:947
1.327;-9.7731;0.5806;53705;2021-05-03 15:10:30:997
1.327;-9.7731;0.5806;53755;2021-05-03 15:10:31:047
1.3414;-9.6426;0.4884;53804;2021-05-03 15:10:31:096
1.2157;-9.6965;0.4178;53854;2021-05-03 15:10:31:146
1.1815;-9.7211;0.3178;53905;2021-05-03 15:10:31:197
1.1815;-9.7211;0.3178;53955;2021-05-03 15:10:31:247
1.151;-9.6971;0.3789;54005;2021-05-03 15:10:31:297
0.9481;-9.7815;0.4567;54055;2021-05-03 15:10:31:347
0.9481;-9.7815;0.4567;54105;2021-05-03 15:10:31:397
1.3414;-9.66;0.4908;54155;2021-05-03 15:10:31:447
1.4904;-9.7205;0.5991;54205;2021-05-03 15:10:31:497
1.2414;-9.6917;0.5704;54255;2021-05-03 15:10:31:547
1.2414;-9.6917;0.5704;54305;2021-05-03 15:10:31:597
1.1785;-9.6827;0.4764;54355;2021-05-03 15:10:31:647
1.3461;-9.7121;0.4603;54405;2021-05-03 15:10:31:697
1.3461;-9.7121;0.4603;54455;2021-05-03 15:10:31:747
1.163;-9.7145;0.504;54505;2021-05-03 15:10:31:797
1.0385;-9.7055;0.413;54555;2021-05-03 15:10:31:847
1.2121;-9.7546;0.3693;54605;2021-05-03 15:10:31:897
1.2121;-9.7546;0.3693;54655;2021-05-03 15:10:31:947
1.2647;-9.7342;0.4627;54705;2021-05-03 15:10:31:997
1.2995;-9.6528;0.5513;54755;2021-05-03 15:10:32:047
1.2995;-9.6528;0.5513;54805;2021-05-03 15:10:32:097
1.2875;-9.7235;0.5249;54854;2021-05-03 15:10:32:146
1.0361;-9.7109;0.3065;54905;2021-05-03 15:10:32:197
1.1343;-9.7288;0.3681;54955;2021-05-03 15:10:32:247
1.1343;-9.7288;0.3681;55004;2021-05-03 15:10:32:296
1.318;-9.6756;0.5537;55055;2021-05-03 15:10:32:347
1.0385;-9.7306;0.4483;55105;2021-05-03 15:10:32:397
1.0385;-9.7306;0.4483;55154;2021-05-03 15:10:32:446
1.2779;-9.7055;0.3543;55205;2021-05-03 15:10:32:497
1.2953;-9.7157;0.5537;55255;2021-05-03 15:10:32:547
1.1127;-9.7336;0.3855;55305;2021-05-03 15:10:32:597
1.1127;-9.7336;0.3855;55355;2021-05-03 15:10:32:647
1.239;-9.6863;0.4387;55405;2021-05-03 15:10:32:697
1.2713;-9.7061;0.5531;55455;2021-05-03 15:10:32:747
1.2713;-9.7061;0.5531;55504;2021-05-03 15:10:32:796
1.0151;-9.76;0.3956;55555;2021-05-03 15:10:32:847
1.3599;-9.6762;0.3741;55605;2021-05-03 15:10:32:897
1.1486;-9.7043;0.504;55655;2021-05-03 15:10:32:947
1.1486;-9.7043;0.504;55705;2021-05-03 15:10:32:997
1.2516;-9.7258;0.4609;55755;2021-05-03 15:10:33:047
1.2109;-9.7402;0.4938;55805;2021-05-03 15:10:33:097
1.2109;-9.7402;0.4938;55855;2021-05-03 15:10:33:147
1.2103;-9.6307;0.4639;55905;2021-05-03 15:10:33:197
1.227;-9.7821;0.5363;55955;2021-05-03 15:10:33:247
1.227;-9.6618;0.2963;56005;2021-05-03 15:10:33:297
1.227;-9.6618;0.2963;56055;2021-05-03 15:10:33:347
1.1893;-9.7558;0.3334;56105;2021-05-03 15:10:33:397
1.1528;-9.6983;0.565;56154;2021-05-03 15:10:33:446
1.1528;-9.6983;0.565;56205;2021-05-03 15:10:33:497
1.4503;-9.6959;0.5674;56255;2021-05-03 15:10:33:547
1.1971;-9.7103;0.3801;56305;2021-05-03 15:10:33:597
1.1971;-9.7103;0.3801;56354;2021-05-03 15:10:33:646
1.151;-9.7217;0.349;56405;2021-05-03 15:10:33:697
1.4263;-9.6822;0.5405;56455;2021-05-03 15:10:33:747
1.1025;-9.7079;0.4573;56505;2021-05-03 15:10:33:797
1.1025;-9.7079;0.4573;56555;2021-05-03 15:10:33:847
1.2222;-9.7145;0.2316;56604;2021-05-03 15:10:33:896
1.3126;-9.7103;0.5052;56655;2021-05-03 15:10:33:947
1.3126;-9.7103;0.5052;56705;2021-05-03 15:10:33:997
1.2665;-9.6851;0.5315;56755;2021-05-03 15:10:34:047
1.2276;-9.7223;0.3112;56805;2021-05-03 15:10:34:097
1.2276;-9.7043;0.3585;56855;2021-05-03 15:10:34:147
1.2276;-9.7043;0.3585;56905;2021-05-03 15:10:34:197
1.3264;-9.7007;0.5195;56955;2021-05-03 15:10:34:247
1.2408;-9.7115;0.4351;57005;2021-05-03 15:10:34:297
1.2408;-9.7115;0.4351;57054;2021-05-03 15:10:34:346
1.327;-9.6911;0.3861;57105;2021-05-03 15:10:34:397
1.2402;-9.6977;0.4477;57155;2021-05-03 15:10:34:447
1.2743;-9.7019;0.4405;57205;2021-05-03 15:10:34:497
1.2743;-9.7019;0.4405;57255;2021-05-03 15:10:34:547
1.1791;-9.7258;0.3286;57305;2021-05-03 15:10:34:597
1.2216;-9.7097;0.3178;57355;2021-05-03 15:10:34:647
1.2216;-9.7097;0.3178;57405;2021-05-03 15:10:34:697
1.3958;-9.6875;0.4699;57455;2021-05-03 15:10:34:747
1.2504;-9.6762;0.5136;57505;2021-05-03 15:10:34:797
1.0618;-9.7534;0.3136;57555;2021-05-03 15:10:34:847
1.0618;-9.7534;0.3136;57605;2021-05-03 15:10:34:897
1.385;-9.6875;0.3825;57655;2021-05-03 15:10:34:947
1.4329;-9.6768;0.5297;57705;2021-05-03 15:10:34:997
1.4329;-9.6768;0.5297;57754;2021-05-03 15:10:35:046
1.2725;-9.7091;0.4028;57805;2021-05-03 15:10:35:097
1.227;-9.7145;0.3663;57855;2021-05-03 15:10:35:147
1.2444;-9.7157;0.3885;57905;2021-05-03 15:10:35:197
1.2444;-9.7157;0.3885;57954;2021-05-03 15:10:35:246
1.3952;-9.6917;0.4669;58005;2021-05-03 15:10:35:297
1.4216;-9.6594;0.4794;58055;2021-05-03 15:10:35:347
1.4216;-9.6594;0.4794;58105;2021-05-03 15:10:35:397
1.2396;-9.7187;0.3525;58155;2021-05-03 15:10:35:447
1.2342;-9.7169;0.4453;58205;2021-05-03 15:10:35:497
1.324;-9.7007;0.477;58254;2021-05-03 15:10:35:546
1.324;-9.7007;0.477;58305;2021-05-03 15:10:35:597
1.3066;-9.6756;0.4381;58355;2021-05-03 15:10:35:647
1.2875;-9.7001;0.4322;58405;2021-05-03 15:10:35:697
1.2875;-9.7001;0.4322;58455;2021-05-03 15:10:35:747
1.3833;-9.7055;0.4597;58505;2021-05-03 15:10:35:797
1.3234;-9.6792;0.4369;58555;2021-05-03 15:10:35:847
1.391;-9.7252;0.428;58605;2021-05-03 15:10:35:897
1.391;-9.7252;0.428;58655;2021-05-03 15:10:35:947
1.4527;-9.657;0.5477;58705;2021-05-03 15:10:35:997
1.2426;-9.7294;0.4675;58754;2021-05-03 15:10:36:046
1.2426;-9.7294;0.4675;58804;2021-05-03 15:10:36:096
1.239;-9.6953;0.4166;58855;2021-05-03 15:10:36:147
1.4222;-9.6899;0.5046;58905;2021-05-03 15:10:36:197
1.3797;-9.7091;0.3968;58954;2021-05-03 15:10:36:246
1.3797;-9.7091;0.3968;59005;2021-05-03 15:10:36:297
1.1396;-9.6929;0.3502;59055;2021-05-03 15:10:36:347
1.3318;-9.7438;0.431;59104;2021-05-03 15:10:36:396
1.3318;-9.7438;0.431;59155;2021-05-03 15:10:36:447
1.4892;-9.6732;0.5028;59205;2021-05-03 15:10:36:497
1.4455;-9.654;0.513;59255;2021-05-03 15:10:36:547
1.4605;-9.7109;0.4028;59305;2021-05-03 15:10:36:597
1.4605;-9.7109;0.4028;59355;2021-05-03 15:10:36:647
1.3928;-9.6355;0.4334;59405;2021-05-03 15:10:36:697
1.312;-9.7025;0.4172;59455;2021-05-03 15:10:36:747
1.312;-9.7025;0.4172;59505;2021-05-03 15:10:36:797
1.3797;-9.6863;0.258;59555;2021-05-03 15:10:36:847
1.3192;-9.7025;0.3932;59605;2021-05-03 15:10:36:897
1.1702;-9.6887;0.4525;59655;2021-05-03 15:10:36:947
1.1702;-9.6887;0.4525;59704;2021-05-03 15:10:36:996
1.3467;-9.6965;0.4519;59755;2021-05-03 15:10:37:047
1.3904;-9.6576;0.34;59805;2021-05-03 15:10:37:097
1.3904;-9.6576;0.34;59855;2021-05-03 15:10:37:147
1.3545;-9.7528;0.2484;59905;2021-05-03 15:10:37:197
1.5676;-9.6666;0.2915;59955;2021-05-03 15:10:37:247
1.5903;-9.6977;0.5297;60005;2021-05-03 15:10:37:297
1.5903;-9.6977;0.5297;60055;2021-05-03 15:10:37:347
1.5413;-9.6283;0.5632;60105;2021-05-03 15:10:37:397
1.4353;-9.7049;0.3208;60155;2021-05-03 15:10:37:447
1.4353;-9.7049;0.3208;60205;2021-05-03 15:10:37:497
1.4832;-9.663;0.4166;60255;2021-05-03 15:10:37:547
1.4216;-9.6552;0.4357;60305;2021-05-03 15:10:37:597
1.4216;-9.6552;0.4357;60355;2021-05-03 15:10:37:647
1.2079;-9.7246;0.2741;60405;2021-05-03 15:10:37:697
1.4784;-9.6762;0.3974;60455;2021-05-03 15:10:37:747
1.5221;-9.6875;0.5088;60505;2021-05-03 15:10:37:797
1.5221;-9.6875;0.5088;60555;2021-05-03 15:10:37:847
1.5443;-9.6965;0.3424;60605;2021-05-03 15:10:37:897
1.4084;-9.6259;0.4238;60655;2021-05-03 15:10:37:947
1.4084;-9.6259;0.4238;60705;2021-05-03 15:10:37:997
1.2995;-9.7241;0.2945;60755;2021-05-03 15:10:38:047
1.4174;-9.6564;0.4447;60805;2021-05-03 15:10:38:097
1.4653;-9.7061;0.4567;60854;2021-05-03 15:10:38:146
1.4653;-9.7061;0.4567;60905;2021-05-03 15:10:38:197
1.5419;-9.666;0.4274;60955;2021-05-03 15:10:38:247
1.3204;-9.6905;0.4046;61005;2021-05-03 15:10:38:297
1.3204;-9.6905;0.4046;61055;2021-05-03 15:10:38:347
1.3204;-9.7121;0.4046;61104;2021-05-03 15:10:38:396
1.4892;-9.6726;0.48;61155;2021-05-03 15:10:38:447
1.4114;-9.6708;0.4381;61205;2021-05-03 15:10:38:497
1.4114;-9.6708;0.4381;61255;2021-05-03 15:10:38:547
1.4198;-9.6851;0.3956;61305;2021-05-03 15:10:38:597
1.4186;-9.7001;0.3705;61355;2021-05-03 15:10:38:647
1.4186;-9.7001;0.3705;61405;2021-05-03 15:10:38:697
1.4228;-9.654;0.4268;61455;2021-05-03 15:10:38:747
1.2827;-9.7025;0.4513;61505;2021-05-03 15:10:38:797
1.421;-9.6863;0.3885;61555;2021-05-03 15:10:38:847
1.421;-9.6863;0.3885;61605;2021-05-03 15:10:38:897
1.6227;-9.6486;0.4962;61655;2021-05-03 15:10:38:947
1.4389;-9.6881;0.4741;61705;2021-05-03 15:10:38:997
1.4389;-9.6881;0.4741;61755;2021-05-03 15:10:39:047
1.2396;-9.7067;0.2927;61804;2021-05-03 15:10:39:096
1.4916;-9.681;0.3585;61855;2021-05-03 15:10:39:147
1.4228;-9.7115;0.5812;61905;2021-05-03 15:10:39:197
1.4228;-9.7115;0.5812;61955;2021-05-03 15:10:39:247
1.4234;-9.6534;0.5608;62005;2021-05-03 15:10:39:297
1.3892;-9.7073;0.4764;62054;2021-05-03 15:10:39:346
1.3892;-9.7073;0.4764;62104;2021-05-03 15:10:39:396
1.4006;-9.6917;0.3891;62154;2021-05-03 15:10:39:446
1.5;-9.6564;0.5327;62205;2021-05-03 15:10:39:497
1.3599;-9.6947;0.4501;62255;2021-05-03 15:10:39:547
1.3599;-9.6947;0.4501;62305;2021-05-03 15:10:39:597
1.4485;-9.6839;0.4693;62355;2021-05-03 15:10:39:647
1.4796;-9.6833;0.5052;62405;2021-05-03 15:10:39:697
1.4796;-9.6833;0.5052;62455;2021-05-03 15:10:39:747
1.3904;-9.6959;0.4124;62504;2021-05-03 15:10:39:796
1.3856;-9.6822;0.398;62554;2021-05-03 15:10:39:846
1.3779;-9.6738;0.431;62605;2021-05-03 15:10:39:897
1.3779;-9.6738;0.431;62655;2021-05-03 15:10:39:947
1.3192;-9.7205;0.3849;62705;2021-05-03 15:10:39:997
1.3719;-9.6732;0.3759;62755;2021-05-03 15:10:40:047
1.3719;-9.6732;0.3759;62805;2021-05-03 15:10:40:097
1.388;-9.6833;0.4465;62855;2021-05-03 15:10:40:147
1.3072;-9.6887;0.407;62905;2021-05-03 15:10:40:197
1.3318;-9.6839;0.3502;62954;2021-05-03 15:10:40:246
1.3318;-9.6839;0.3502;63005;2021-05-03 15:10:40:297
1.4144;-9.7067;0.4663;63055;2021-05-03 15:10:40:347
1.3509;-9.6917;0.5052;63104;2021-05-03 15:10:40:396
1.3509;-9.6917;0.5052;63155;2021-05-03 15:10:40:447
1.3186;-9.7193;0.4322;63205;2021-05-03 15:10:40:497
1.485;-9.6337;0.4567;63254;2021-05-03 15:10:40:546
1.4676;-9.6899;0.5285;63305;2021-05-03 15:10:40:597
1.4676;-9.6899;0.5285;63355;2021-05-03 15:10:40:647
1.5437;-9.6786;0.4914;63405;2021-05-03 15:10:40:697
1.4497;-9.6851;0.4268;63455;2021-05-03 15:10:40:747
1.4497;-9.6851;0.4268;63505;2021-05-03 15:10:40:797
1.3892;-9.6839;0.316;63554;2021-05-03 15:10:40:846
1.3503;-9.6863;0.4064;63605;2021-05-03 15:10:40:897
1.306;-9.6881;0.477;63655;2021-05-03 15:10:40:947
1.306;-9.6881;0.477;63705;2021-05-03 15:10:40:997
1.5125;-9.6857;0.4172;63755;2021-05-03 15:10:41:047
1.5299;-9.6564;0.4363;63805;2021-05-03 15:10:41:097
1.5299;-9.6564;0.4363;63855;2021-05-03 15:10:41:147
1.5634;-9.6492;0.5171;63904;2021-05-03 15:10:41:196
1.3815;-9.7348;0.4052;63955;2021-05-03 15:10:41:247
1.4479;-9.6289;0.3681;64005;2021-05-03 15:10:41:297
1.4479;-9.6289;0.3681;64055;2021-05-03 15:10:41:347
1.3162;-9.6869;0.3645;64105;2021-05-03 15:10:41:397
1.4904;-9.7223;0.4411;64155;2021-05-03 15:10:41:447
1.4904;-9.7223;0.4411;64205;2021-05-03 15:10:41:497
1.5993;-9.6199;0.5369;64254;2021-05-03 15:10:41:546
1.4449;-9.6839;0.6033;64305;2021-05-03 15:10:41:597
1.4449;-9.6839;0.6033;64355;2021-05-03 15:10:41:647
1.3545;-9.6522;0.5261;64405;2021-05-03 15:10:41:697
1.0193;-9.7797;0.2831;64455;2021-05-03 15:10:41:747
1.6275;-9.6732;0.3861;64505;2021-05-03 15:10:41:797
1.6275;-9.6732;0.3861;64555;2021-05-03 15:10:41:847
1.6999;-9.6085;0.647;64605;2021-05-03 15:10:41:897
1.2629;-9.7348;0.3537;64655;2021-05-03 15:10:41:947
1.2629;-9.7348;0.3537;64705;2021-05-03 15:10:41:997
1.2755;-9.7115;0.1496;64755;2021-05-03 15:10:42:047
1.5868;-9.6857;0.483;64805;2021-05-03 15:10:42:097
1.4581;-9.6061;0.6255;64855;2021-05-03 15:10:42:147
1.4581;-9.6061;0.6255;64905;2021-05-03 15:10:42:197
0.9756;-9.7821;0.4351;64955;2021-05-03 15:10:42:247
1.4383;-9.6391;0.2951;65005;2021-05-03 15:10:42:297
1.4383;-9.6391;0.2951;65054;2021-05-03 15:10:42:346
1.8064;-9.6516;0.5441;65105;2021-05-03 15:10:42:397
1.567;-9.6792;0.5148;65155;2021-05-03 15:10:42:447
0.9391;-9.7444;0.3346;65205;2021-05-03 15:10:42:497
0.9391;-9.7444;0.3346;65255;2021-05-03 15:10:42:547
1.3066;-9.7145;0.4747;65305;2021-05-03 15:10:42:597
1.9561;-9.5966;0.6722;65355;2021-05-03 15:10:42:647
1.9561;-9.5966;0.6722;65405;2021-05-03 15:10:42:697
1.3803;-9.6552;0.4657;65454;2021-05-03 15:10:42:746
1.3312;-9.7258;0.1006;65505;2021-05-03 15:10:42:797
1.6418;-9.6822;0.4375;65555;2021-05-03 15:10:42:847
1.6418;-9.6822;0.4375;65604;2021-05-03 15:10:42:896
1.4659;-9.6229;0.6584;65655;2021-05-03 15:10:42:947
0.972;-9.7791;0.5076;65705;2021-05-03 15:10:42:997
0.972;-9.7791;0.5076;65755;2021-05-03 15:10:43:047
1.1169;-9.7187;0.3609;65805;2021-05-03 15:10:43:097
1.3461;-9.6935;0.4411;65855;2021-05-03 15:10:43:147
1.7148;-9.6109;0.4525;65905;2021-05-03 15:10:43:197
1.7148;-9.6109;0.4525;65955;2021-05-03 15:10:43:247
1.4341;-9.7091;0.4304;66005;2021-05-03 15:10:43:297
1.5263;-9.645;0.5189;66055;2021-05-03 15:10:43:347
1.5263;-9.645;0.5189;66105;2021-05-03 15:10:43:397
1.485;-9.7073;0.507;66155;2021-05-03 15:10:43:447
1.5461;-9.6516;0.4914;66205;2021-05-03 15:10:43:497
1.3815;-9.6911;0.4914;66255;2021-05-03 15:10:43:547
1.3815;-9.6911;0.4914;66304;2021-05-03 15:10:43:596
1.3539;-9.7282;0.4046;66355;2021-05-03 15:10:43:647
1.5915;-9.6648;0.5267;66405;2021-05-03 15:10:43:697
1.5915;-9.6648;0.5267;66455;2021-05-03 15:10:43:747
1.309;-9.6301;0.5106;66505;2021-05-03 15:10:43:797
1.1025;-9.7821;0.3142;66555;2021-05-03 15:10:43:847
1.397;-9.7061;0.3424;66605;2021-05-03 15:10:43:897
1.397;-9.7061;0.3424;66655;2021-05-03 15:10:43:947
1.579;-9.6624;0.5614;66705;2021-05-03 15:10:43:997
1.634;-9.6522;0.5704;66755;2021-05-03 15:10:44:047
1.634;-9.6522;0.5704;66805;2021-05-03 15:10:44:097
1.409;-9.7252;0.3513;66854;2021-05-03 15:10:44:146
1.6107;-9.657;0.3711;66905;2021-05-03 15:10:44:197
1.4617;-9.5301;0.5213;66955;2021-05-03 15:10:44:247
1.4617;-9.5301;0.5213;67005;2021-05-03 15:10:44:297
1.0983;-9.7701;0.2161;67055;2021-05-03 15:10:44:347
1.327;-9.8641;-0.0311;67105;2021-05-03 15:10:44:397
1.327;-9.8641;-0.0311;67155;2021-05-03 15:10:44:447
1.9644;-9.4338;0.4262;67205;2021-05-03 15:10:44:497
1.1887;-9.8444;0.5956;67255;2021-05-03 15:10:44:547
1.1061;-9.6869;0.1496;67305;2021-05-03 15:10:44:597
1.1061;-9.6869;0.1496;67355;2021-05-03 15:10:44:647
1.7053;-9.6397;0.2849;67405;2021-05-03 15:10:44:697
1.1055;-9.6983;0.4956;67455;2021-05-03 15:10:44:747
1.1055;-9.6983;0.4956;67505;2021-05-03 15:10:44:797
1.0618;-9.7552;0.2388;67555;2021-05-03 15:10:44:847
1.7885;-9.6498;0.2496;67605;2021-05-03 15:10:44:897
1.312;-9.6684;0.3274;67655;2021-05-03 15:10:44:947
1.312;-9.6684;0.3274;67705;2021-05-03 15:10:44:997
1.2588;-9.763;0.1359;67755;2021-05-03 15:10:45:047
1.7286;-9.5726;0.34;67805;2021-05-03 15:10:45:097
1.7286;-9.5726;0.34;67855;2021-05-03 15:10:45:147
1.385;-9.7139;0.4334;67905;2021-05-03 15:10:45:197
1.242;-9.739;0.1478;67955;2021-05-03 15:10:45:247
1.3689;-9.6426;0.2825;68005;2021-05-03 15:10:45:297
1.3689;-9.6426;0.2825;68055;2021-05-03 15:10:45:347
1.2749;-9.7498;0.4896;68105;2021-05-03 15:10:45:397
1.3228;-9.751;0.2616;68155;2021-05-03 15:10:45:447
1.3228;-9.751;0.2616;68205;2021-05-03 15:10:45:497
1.4341;-9.6145;0.3921;68255;2021-05-03 15:10:45:547
1.3467;-9.7384;0.4603;68305;2021-05-03 15:10:45:597
1.3467;-9.7384;0.4603;68355;2021-05-03 15:10:45:647
1.4341;-9.6474;0.3017;68405;2021-05-03 15:10:45:697
1.549;-9.648;0.4429;68455;2021-05-03 15:10:45:747
1.3372;-9.763;0.1915;68505;2021-05-03 15:10:45:797
1.3372;-9.763;0.1915;68555;2021-05-03 15:10:45:847
1.485;-9.7139;-0.1694;68605;2021-05-03 15:10:45:897
1.5101;-9.7091;0.1778;68655;2021-05-03 15:10:45:947
1.5101;-9.7091;0.1778;68705;2021-05-03 15:10:45:997
1.3036;-9.6456;0.6159;68754;2021-05-03 15:10:46:046
1.2306;-9.7252;0.5662;68805;2021-05-03 15:10:46:097
1.1803;-9.7019;0.2514;68855;2021-05-03 15:10:46:147
1.1803;-9.7019;0.2514;68905;2021-05-03 15:10:46:197
1.3701;-9.6624;0.2466;68955;2021-05-03 15:10:46:247
1.6484;-9.7426;0.3825;69005;2021-05-03 15:10:46:297
1.6484;-9.7426;0.3825;69055;2021-05-03 15:10:46:347
1.8166;-9.6295;0.3693;69105;2021-05-03 15:10:46:397
1.5239;-9.5882;0.4082;69155;2021-05-03 15:10:46:447
1.251;-9.7043;0.2993;69205;2021-05-03 15:10:46:497
1.251;-9.7043;0.2993;69255;2021-05-03 15:10:46:547
1.3264;-9.6911;0.237;69305;2021-05-03 15:10:46:597
1.3605;-9.6151;0.4501;69355;2021-05-03 15:10:46:647
1.3605;-9.6151;0.4501;69405;2021-05-03 15:10:46:697
1.336;-9.6732;0.4699;69455;2021-05-03 15:10:46:747
1.1965;-9.5978;0.3897;69505;2021-05-03 15:10:46:797
1.2749;-9.8144;0.7626;69555;2021-05-03 15:10:46:847
1.2749;-9.8144;0.7626;69604;2021-05-03 15:10:46:896
1.0481;-9.672;0.9445;69655;2021-05-03 15:10:46:947
0.4405;-9.9988;0.677;69705;2021-05-03 15:10:46:997
0.4405;-9.9988;0.677;69755;2021-05-03 15:10:47:047
0.9295;-9.748;0.3609;69805;2021-05-03 15:10:47:097
0.7943;-9.7414;0.4363;69855;2021-05-03 15:10:47:147
0.8296;-9.7965;0.3885;69905;2021-05-03 15:10:47:197
0.8296;-9.7965;0.3885;69955;2021-05-03 15:10:47:247
0.6871;-9.7743;0.3274;70005;2021-05-03 15:10:47:297
1.3982;-9.6672;0.6333;70055;2021-05-03 15:10:47:347
1.3982;-9.6672;0.6333;70105;2021-05-03 15:10:47:397
1.0098;-9.8515;0.41;70155;2021-05-03 15:10:47:447
0.7087;-9.973;-0.0054;70205;2021-05-03 15:10:47:497
1.0092;-9.8132;0.0048;70255;2021-05-03 15:10:47:547
1.0092;-9.8132;0.0048;70305;2021-05-03 15:10:47:597
1.1702;-9.8288;-0.0138;70355;2021-05-03 15:10:47:647
1.4934;-10.1263;-0.5788;70405;2021-05-03 15:10:47:697
1.4934;-10.1263;-0.5788;70455;2021-05-03 15:10:47:747
2.0925;-9.5966;-0.1179;70504;2021-05-03 15:10:47:796
1.8723;-9.3757;-0.3005;70554;2021-05-03 15:10:47:846
1.9064;-9.3787;0.173;70605;2021-05-03 15:10:47:897
1.9064;-9.3787;0.173;70654;2021-05-03 15:10:47:946
1.4796;-9.7983;-0.7889;70705;2021-05-03 15:10:47:997
2.2242;-8.5874;-0.1275;70755;2021-05-03 15:10:48:047
2.2242;-8.5874;-0.1275;70805;2021-05-03 15:10:48:097
2.1446;-9.0866;0.574;70855;2021-05-03 15:10:48:147
2.3361;-9.3895;0.164;70904;2021-05-03 15:10:48:196
1.8591;-10.2903;-0.1664;70954;2021-05-03 15:10:48:246
1.8591;-10.2903;-0.1664;71005;2021-05-03 15:10:48:297
1.7107;-9.5559;-0.2765;71055;2021-05-03 15:10:48:347
1.3174;-9.9473;0.6668;71105;2021-05-03 15:10:48:397
1.3174;-9.9473;0.6668;71155;2021-05-03 15:10:48:447
1.5538;-9.6229;0.814;71205;2021-05-03 15:10:48:497
1.9315;-9.7121;0.7632;71255;2021-05-03 15:10:48:547
1.5766;-9.5828;0.7033;71305;2021-05-03 15:10:48:597
1.5766;-9.5828;0.7033;71355;2021-05-03 15:10:48:647
1.6634;-9.6678;0.7254;71405;2021-05-03 15:10:48:697
1.7466;-9.6301;0.8452;71455;2021-05-03 15:10:48:747
1.7466;-9.6301;0.8452;71505;2021-05-03 15:10:48:797
1.1408;-9.6115;0.7141;71555;2021-05-03 15:10:48:847
0.9008;-10.0161;0.5614;71605;2021-05-03 15:10:48:897
0.8733;-9.7725;0.313;71655;2021-05-03 15:10:48:947
0.8733;-9.7725;0.313;71705;2021-05-03 15:10:48:997
0.5411;-9.8659;0.7093;71755;2021-05-03 15:10:49:047
1.8298;-9.6313;0.9541;71804;2021-05-03 15:10:49:096
1.8298;-9.6313;0.9541;71855;2021-05-03 15:10:49:147
1.5598;-9.5618;1.1025;71905;2021-05-03 15:10:49:197
0.981;-9.9084;0.7404;71955;2021-05-03 15:10:49:247
0.981;-9.9084;0.7404;72005;2021-05-03 15:10:49:297
1.506;-9.6498;0.2424;72055;2021-05-03 15:10:49:347
1.6688;-9.6397;0.6428;72105;2021-05-03 15:10:49:397
1.3994;-9.6714;0.7374;72155;2021-05-03 15:10:49:447
1.3994;-9.6714;0.7374;72205;2021-05-03 15:10:49:497
1.0624;-9.8055;0.1784;72255;2021-05-03 15:10:49:547
1.7663;-9.7588;0.4914;72304;2021-05-03 15:10:49:596
1.7663;-9.7588;0.4914;72355;2021-05-03 15:10:49:647
1.7131;-9.4864;0.4513;72405;2021-05-03 15:10:49:697
1.2444;-9.5565;0.2346;72455;2021-05-03 15:10:49:747
2.1883;-10.1526;0.3699;72505;2021-05-03 15:10:49:797
2.1883;-10.1526;0.3699;72555;2021-05-03 15:10:49:847
2.1829;-9.3691;0.5267;72605;2021-05-03 15:10:49:897
1.6364;-9.3075;0.6524;72655;2021-05-03 15:10:49:947
1.6364;-9.3075;0.6524;72705;2021-05-03 15:10:49:997
1.6508;-9.4954;0.8859;72755;2021-05-03 15:10:50:047
1.9962;-9.6109;0.5567;72805;2021-05-03 15:10:50:097
2.1811;-9.4942;0.4956;72854;2021-05-03 15:10:50:146
2.1811;-9.4942;0.4956;72905;2021-05-03 15:10:50:197
1.549;-9.6265;0.4387;72955;2021-05-03 15:10:50:247
2.1201;-9.6504;0.6512;73005;2021-05-03 15:10:50:297
2.1201;-9.6504;0.6512;73055;2021-05-03 15:10:50:347
2.3715;-9.5541;0.3849;73105;2021-05-03 15:10:50:397
1.9866;-9.5187;0.6758;73155;2021-05-03 15:10:50:447
2.0004;-9.6534;0.3394;73205;2021-05-03 15:10:50:497
2.0004;-9.6534;0.3394;73255;2021-05-03 15:10:50:547
2.0261;-9.499;0.6015;73305;2021-05-03 15:10:50:597
2.5492;-9.4475;0.5459;73354;2021-05-03 15:10:50:646
2.5492;-9.4475;0.5459;73405;2021-05-03 15:10:50:697
1.743;-9.6073;0.3124;73455;2021-05-03 15:10:50:747
1.7717;-9.7019;0.4597;73505;2021-05-03 15:10:50:797
2.08;-9.5086;0.4998;73555;2021-05-03 15:10:50:847
2.08;-9.5086;0.4998;73605;2021-05-03 15:10:50:897
2.0824;-9.596;0.2634;73654;2021-05-03 15:10:50:946
1.9609;-9.5822;0.4088;73705;2021-05-03 15:10:50:997
1.9609;-9.5822;0.4088;73755;2021-05-03 15:10:51:047
2.0704;-9.5654;0.4938;73805;2021-05-03 15:10:51:097
2.323;-9.4852;0.4956;73855;2021-05-03 15:10:51:147
1.9932;-9.6343;0.4435;73904;2021-05-03 15:10:51:196
1.9932;-9.6343;0.4435;73955;2021-05-03 15:10:51:247
1.8633;-9.6355;0.4579;74005;2021-05-03 15:10:51:297
2.2027;-9.5385;0.5136;74055;2021-05-03 15:10:51:347
2.2027;-9.5385;0.5136;74104;2021-05-03 15:10:51:396
1.9507;-9.5493;0.3765;74155;2021-05-03 15:10:51:447
1.9788;-9.563;0.3202;74205;2021-05-03 15:10:51:497
1.9848;-9.6007;0.3645;74255;2021-05-03 15:10:51:547
1.9848;-9.6007;0.3645;74305;2021-05-03 15:10:51:597
2.1015;-9.6241;0.3573;74355;2021-05-03 15:10:51:647
2.0919;-9.5517;0.3891;74404;2021-05-03 15:10:51:696
2.0919;-9.5517;0.3891;74455;2021-05-03 15:10:51:747
2.077;-9.487;0.5872;74505;2021-05-03 15:10:51:797
1.9836;-9.5852;0.4166;74555;2021-05-03 15:10:51:847
1.9656;-9.5858;0.2514;74605;2021-05-03 15:10:51:897
1.9656;-9.5858;0.2514;74655;2021-05-03 15:10:51:947
2.2577;-9.5487;0.3418;74705;2021-05-03 15:10:51:997
1.901;-9.5972;0.3418;74755;2021-05-03 15:10:52:047
1.901;-9.5972;0.3418;74804;2021-05-03 15:10:52:096
1.6652;-9.6881;0.2071;74855;2021-05-03 15:10:52:147
2.1075;-9.5708;0.2586;74905;2021-05-03 15:10:52:197
1.719;-9.6043;0.2077;74955;2021-05-03 15:10:52:247
1.719;-9.6043;0.2077;75005;2021-05-03 15:10:52:297
1.998;-9.6247;0.3065;75055;2021-05-03 15:10:52:347
2.2757;-9.5211;0.4256;75105;2021-05-03 15:10:52:397
2.2757;-9.5211;0.4256;75155;2021-05-03 15:10:52:447
1.9261;-9.6025;0.2442;75205;2021-05-03 15:10:52:497
1.4036;-9.6313;0.2119;75255;2021-05-03 15:10:52:547
1.8741;-9.5906;0.1245;75305;2021-05-03 15:10:52:597
1.8741;-9.5906;0.1245;75355;2021-05-03 15:10:52:647
1.9752;-9.6666;0.167;75405;2021-05-03 15:10:52:697
1.2701;-9.7079;0.0545;75455;2021-05-03 15:10:52:747
1.2701;-9.7079;0.0545;75504;2021-05-03 15:10:52:796
1.6089;-9.5966;0.1047;75555;2021-05-03 15:10:52:847
2.0327;-9.6756;0.4118;75605;2021-05-03 15:10:52:897
2.2529;-9.5756;0.0676;75654;2021-05-03 15:10:52:946
2.2529;-9.5756;0.0676;75705;2021-05-03 15:10:52:997
1.5598;-9.5876;0.2927;75755;2021-05-03 15:10:53:047
1.3288;-9.6187;0.2215;75805;2021-05-03 15:10:53:097
1.3288;-9.6187;0.2215;75855;2021-05-03 15:10:53:147
1.6394;-9.8114;0.2119;75905;2021-05-03 15:10:53:197
1.8603;-9.5852;0.2634;75955;2021-05-03 15:10:53:247
1.8603;-9.5852;0.2634;76005;2021-05-03 15:10:53:297
1.5987;-9.7139;0.3687;76054;2021-05-03 15:10:53:346
1.5616;-9.6929;0.4687;76105;2021-05-03 15:10:53:397
1.6783;-9.6756;0.5602;76155;2021-05-03 15:10:53:447
1.6783;-9.6756;0.5602;76205;2021-05-03 15:10:53:497
1.5089;-9.6624;0.4136;76255;2021-05-03 15:10:53:547
1.1181;-9.6588;0.3699;76305;2021-05-03 15:10:53:597
1.1181;-9.6588;0.3699;76355;2021-05-03 15:10:53:647
0.9744;-9.6839;0.343;76405;2021-05-03 15:10:53:697
1.139;-9.751;0.395;76455;2021-05-03 15:10:53:747
1.2282;-9.6935;0.2328;76504;2021-05-03 15:10:53:796
1.2282;-9.6935;0.2328;76555;2021-05-03 15:10:53:847
1.4269;-9.6911;0.1419;76605;2021-05-03 15:10:53:897
1.2234;-9.7588;0.4747;76655;2021-05-03 15:10:53:947
1.2234;-9.7588;0.4747;76704;2021-05-03 15:10:53:996
1.0319;-9.6911;0.5459;76755;2021-05-03 15:10:54:047
1.3431;-9.7582;0.562;76805;2021-05-03 15:10:54:097
1.424;-9.6971;0.4088;76855;2021-05-03 15:10:54:147
1.424;-9.6971;0.4088;76905;2021-05-03 15:10:54:197
1.1923;-9.7312;0.2849;76955;2021-05-03 15:10:54:247
0.8882;-9.7594;0.2855;77005;2021-05-03 15:10:54:297
0.8882;-9.7594;0.2855;77055;2021-05-03 15:10:54:347
1.0301;-9.7648;0.3795;77104;2021-05-03 15:10:54:396
1.4401;-9.6738;0.5908;77154;2021-05-03 15:10:54:446
1.4024;-9.6732;0.6494;77205;2021-05-03 15:10:54:497
1.4024;-9.6732;0.6494;77254;2021-05-03 15:10:54:546
1.0151;-9.7689;0.3873;77305;2021-05-03 15:10:54:597
0.99;-9.763;0.1622;77355;2021-05-03 15:10:54:647
0.99;-9.763;0.1622;77405;2021-05-03 15:10:54:697
1.2163;-9.7007;0.3496;77455;2021-05-03 15:10:54:747
0.9714;-9.7288;0.4932;77505;2021-05-03 15:10:54:797
1.0127;-9.7294;0.331;77555;2021-05-03 15:10:54:847
1.0127;-9.7294;0.331;77605;2021-05-03 15:10:54:897
1.0074;-9.751;0.2149;77655;2021-05-03 15:10:54:947
1.075;-9.7414;0.2352;77705;2021-05-03 15:10:54:997
1.075;-9.7414;0.2352;77755;2021-05-03 15:10:55:047
1.1223;-9.6983;0.3567;77805;2021-05-03 15:10:55:097
1.2252;-9.7055;0.495;77855;2021-05-03 15:10:55:147
1.0672;-9.7264;0.3184;77905;2021-05-03 15:10:55:197
1.0672;-9.7264;0.3184;77955;2021-05-03 15:10:55:247
0.9984;-9.7438;0.1634;78005;2021-05-03 15:10:55:297
1.2893;-9.7342;0.3525;78055;2021-05-03 15:10:55:347
1.2893;-9.7342;0.3525;78105;2021-05-03 15:10:55:397
1.1977;-9.7258;0.3585;78155;2021-05-03 15:10:55:447
1.0971;-9.727;0.3017;78205;2021-05-03 15:10:55:497
1.1785;-9.7073;0.349;78255;2021-05-03 15:10:55:547
1.1785;-9.7073;0.349;78305;2021-05-03 15:10:55:597
1.0499;-9.7294;0.3029;78355;2021-05-03 15:10:55:647
1.0989;-9.733;0.2891;78405;2021-05-03 15:10:55:697
1.0989;-9.733;0.2891;78455;2021-05-03 15:10:55:747
1.1073;-9.7055;0.2807;78505;2021-05-03 15:10:55:797
1.0523;-9.7498;0.2472;78555;2021-05-03 15:10:55:847
1.1289;-9.745;0.2652;78605;2021-05-03 15:10:55:897
1.1289;-9.745;0.2652;78655;2021-05-03 15:10:55:947
1.2486;-9.669;0.4238;78705;2021-05-03 15:10:55:997
1.1582;-9.7163;0.4914;78755;2021-05-03 15:10:56:047
1.1582;-9.7163;0.4914;78805;2021-05-03 15:10:56:097
0.981;-9.7444;0.2484;78855;2021-05-03 15:10:56:147
1.093;-9.757;0.1018;78905;2021-05-03 15:10:56:197
1.2857;-9.7013;0.3591;78955;2021-05-03 15:10:56:247
1.2857;-9.7013;0.3591;79005;2021-05-03 15:10:56:297
1.0858;-9.7235;0.4723;79055;2021-05-03 15:10:56:347
1.0259;-9.7402;0.3328;79105;2021-05-03 15:10:56:397
1.0259;-9.7402;0.3328;79155;2021-05-03 15:10:56:447
1.1995;-9.7211;0.3065;79205;2021-05-03 15:10:56:497
1.2133;-9.7031;0.3813;79255;2021-05-03 15:10:56:547
1.1199;-9.7456;0.3753;79305;2021-05-03 15:10:56:597
1.1199;-9.7456;0.3753;79355;2021-05-03 15:10:56:647
1.1241;-9.6959;0.3316;79405;2021-05-03 15:10:56:697
1.1295;-9.7426;0.3591;79455;2021-05-03 15:10:56:747
1.1295;-9.7426;0.3591;79505;2021-05-03 15:10:56:797
1.1013;-9.7235;0.3035;79555;2021-05-03 15:10:56:847
1.0499;-9.7348;0.2676;79605;2021-05-03 15:10:56:897
1.0499;-9.7348;0.2676;79654;2021-05-03 15:10:56:946
1.1211;-9.7354;0.3831;79705;2021-05-03 15:10:56:997
1.2139;-9.7127;0.4711;79755;2021-05-03 15:10:57:047
1.1097;-9.7294;0.3855;79805;2021-05-03 15:10:57:097
1.1097;-9.7294;0.3855;79855;2021-05-03 15:10:57:147
1.1881;-9.7246;0.3065;79905;2021-05-03 15:10:57:197
1.1797;-9.7199;0.3807;79955;2021-05-03 15:10:57:247
1.1797;-9.7199;0.3807;80005;2021-05-03 15:10:57:297
1.148;-9.7288;0.4112;80055;2021-05-03 15:10:57:347
1.1636;-9.7414;0.3693;80105;2021-05-03 15:10:57:397
1.1827;-9.678;0.3795;80155;2021-05-03 15:10:57:447
1.1827;-9.678;0.3795;80205;2021-05-03 15:10:57:497
1.0798;-9.7606;0.3843;80255;2021-05-03 15:10:57:547
1.1271;-9.7432;0.2783;80305;2021-05-03 15:10:57:597
1.1271;-9.7432;0.2783;80354;2021-05-03 15:10:57:646
1.1558;-9.681;0.313;80404;2021-05-03 15:10:57:696
1.1797;-9.7157;0.4591;80455;2021-05-03 15:10:57:747
1.0361;-9.751;0.3106;80505;2021-05-03 15:10:57:797
1.0361;-9.751;0.3106;80555;2021-05-03 15:10:57:847
1.1271;-9.7205;0.1897;80605;2021-05-03 15:10:57:897
1.1582;-9.7246;0.3663;80655;2021-05-03 15:10:57:947
1.1582;-9.7246;0.3663;80705;2021-05-03 15:10:57:997
1.142;-9.7175;0.3705;80755;2021-05-03 15:10:58:047
1.0696;-9.7402;0.2251;80805;2021-05-03 15:10:58:097
1.16;-9.7199;0.3083;80855;2021-05-03 15:10:58:147
1.16;-9.7199;0.3083;80905;2021-05-03 15:10:58:197
1.1606;-9.7061;0.3956;80955;2021-05-03 15:10:58:247
1.0846;-9.76;0.2777;81005;2021-05-03 15:10:58:297
1.0846;-9.76;0.2777;81055;2021-05-03 15:10:58:347
1.1259;-9.7091;0.2652;81105;2021-05-03 15:10:58:397
1.1384;-9.7235;0.3609;81155;2021-05-03 15:10:58:447
1.2121;-9.7121;0.431;81205;2021-05-03 15:10:58:497
1.2121;-9.7121;0.431;81255;2021-05-03 15:10:58:547
1.1307;-9.7205;0.2849;81305;2021-05-03 15:10:58:597
1.1899;-9.7354;0.2975;81355;2021-05-03 15:10:58:647
1.1899;-9.7354;0.2975;81405;2021-05-03 15:10:58:697
1.081;-9.7193;0.3621;81455;2021-05-03 15:10:58:747
1.1247;-9.7217;0.3238;81505;2021-05-03 15:10:58:797
1.1756;-9.7282;0.3023;81555;2021-05-03 15:10:58:847
1.1756;-9.7282;0.3023;81605;2021-05-03 15:10:58:897
1.1133;-9.73;0.2999;81655;2021-05-03 15:10:58:947
1.1779;-9.7097;0.4148;81705;2021-05-03 15:10:58:997
1.1779;-9.7097;0.4148;81755;2021-05-03 15:10:59:047
1.0912;-9.733;0.2921;81805;2021-05-03 15:10:59:097
1.1438;-9.73;0.2454;81855;2021-05-03 15:10:59:147
1.1552;-9.7205;0.3998;81905;2021-05-03 15:10:59:197
1.1552;-9.7205;0.3998;81955;2021-05-03 15:10:59:247
1.0876;-9.727;0.3753;82005;2021-05-03 15:10:59:297
1.1115;-9.7175;0.2251;82055;2021-05-03 15:10:59:347
1.1115;-9.7175;0.2251;82105;2021-05-03 15:10:59:397
1.1229;-9.7408;0.261;82155;2021-05-03 15:10:59:447
1.1349;-9.727;0.3938;82205;2021-05-03 15:10:59:497
1.1349;-9.7211;0.2897;82255;2021-05-03 15:10:59:547
1.1349;-9.7211;0.2897;82305;2021-05-03 15:10:59:597
1.1444;-9.7187;0.3029;82354;2021-05-03 15:10:59:646
1.1432;-9.7205;0.3466;82405;2021-05-03 15:10:59:697
1.1432;-9.7205;0.3466;82455;2021-05-03 15:10:59:747
1.0493;-9.7474;0.3023;82504;2021-05-03 15:10:59:796
1.1199;-9.7211;0.258;82555;2021-05-03 15:10:59:847
1.1516;-9.7079;0.3891;82605;2021-05-03 15:10:59:897
1.1516;-9.7079;0.3891;82655;2021-05-03 15:10:59:947
1.0648;-9.7462;0.3615;82705;2021-05-03 15:10:59:997
1.1785;-9.7145;0.2915;82755;2021-05-03 15:11:00:047
1.1785;-9.7145;0.2915;82805;2021-05-03 15:11:00:097
1.1055;-9.7294;0.3478;82855;2021-05-03 15:11:00:147
1.072;-9.733;0.3023;82905;2021-05-03 15:11:00:197
1.1247;-9.7258;0.2705;82955;2021-05-03 15:11:00:247
1.1247;-9.7258;0.2705;83005;2021-05-03 15:11:00:297
1.1025;-9.7235;0.2837;83055;2021-05-03 15:11:00:347
1.1037;-9.7252;0.3262;83105;2021-05-03 15:11:00:397
1.1037;-9.7252;0.3262;83155;2021-05-03 15:11:00:447
1.1181;-9.7432;0.337;83205;2021-05-03 15:11:00:497
1.1396;-9.7157;0.2897;83255;2021-05-03 15:11:00:547
1.0283;-9.7384;0.2885;83304;2021-05-03 15:11:00:596
1.0283;-9.7384;0.2885;83355;2021-05-03 15:11:00:647
1.1977;-9.7175;0.3071;83405;2021-05-03 15:11:00:697
1.0965;-9.7241;0.3633;83455;2021-05-03 15:11:00:747
1.0965;-9.7241;0.3633;83504;2021-05-03 15:11:00:796
1.1738;-9.7252;0.2532;83555;2021-05-03 15:11:00:847
1.087;-9.7348;0.2795;83605;2021-05-03 15:11:00:897
1.087;-9.7348;0.2795;83654;2021-05-03 15:11:00:946
1.1498;-9.7097;0.3442;83705;2021-05-03 15:11:00:997
1.1301;-9.7252;0.3358;83755;2021-05-03 15:11:01:047
1.081;-9.7444;0.2771;83805;2021-05-03 15:11:01:097
1.081;-9.7444;0.2771;83855;2021-05-03 15:11:01:147
1.1205;-9.7205;0.2777;83904;2021-05-03 15:11:01:196
1.1672;-9.7031;0.3412;83955;2021-05-03 15:11:01:247
1.1672;-9.7031;0.3412;84005;2021-05-03 15:11:01:297
1.075;-9.7594;0.2693;84055;2021-05-03 15:11:01:347
1.1564;-9.7091;0.2149;84105;2021-05-03 15:11:01:397
1.0983;-9.7462;0.3376;84155;2021-05-03 15:11:01:447
1.0983;-9.7462;0.3376;84205;2021-05-03 15:11:01:497
1.1636;-9.7055;0.3729;84255;2021-05-03 15:11:01:547
1.0499;-9.733;0.2981;84305;2021-05-03 15:11:01:597
1.0499;-9.733;0.2981;84355;2021-05-03 15:11:01:647
1.1127;-9.736;0.2598;84405;2021-05-03 15:11:01:697
1.1785;-9.7103;0.3035;84455;2021-05-03 15:11:01:747
1.0912;-9.739;0.3154;84505;2021-05-03 15:11:01:797
1.0912;-9.739;0.3154;84554;2021-05-03 15:11:01:846
1.1265;-9.7384;0.3334;84604;2021-05-03 15:11:01:896
1.1295;-9.7019;0.3142;84655;2021-05-03 15:11:01:947
1.1295;-9.7019;0.3142;84705;2021-05-03 15:11:01:997
1.0439;-9.7414;0.3394;84755;2021-05-03 15:11:02:047
1.1971;-9.7007;0.3208;84805;2021-05-03 15:11:02:097
1.0355;-9.7648;0.2436;84855;2021-05-03 15:11:02:147
1.0355;-9.7648;0.2436;84905;2021-05-03 15:11:02:197
1.087;-9.7091;0.2687;84955;2021-05-03 15:11:02:247
1.2252;-9.7205;0.3843;85005;2021-05-03 15:11:02:297
1.2252;-9.7205;0.3843;85055;2021-05-03 15:11:02:347
1.0349;-9.739;0.3448;85104;2021-05-03 15:11:02:396
1.1205;-9.7306;0.3496;85155;2021-05-03 15:11:02:447
1.2061;-9.7127;0.3759;85205;2021-05-03 15:11:02:497
1.2061;-9.7127;0.3759;85254;2021-05-03 15:11:02:546
1.1588;-9.7342;0.3448;85305;2021-05-03 15:11:02:597
1.1343;-9.727;0.2729;85355;2021-05-03 15:11:02:647
1.1343;-9.727;0.2729;85405;2021-05-03 15:11:02:697
1.1863;-9.7318;0.3454;85455;2021-05-03 15:11:02:747
1.1079;-9.7091;0.2849;85505;2021-05-03 15:11:02:797
1.1516;-9.7384;0.2849;85555;2021-05-03 15:11:02:847
1.1516;-9.7384;0.2849;85605;2021-05-03 15:11:02:897
1.1175;-9.7163;0.3286;85654;2021-05-03 15:11:02:946
1.1133;-9.7378;0.2975;85704;2021-05-03 15:11:02:996
1.1133;-9.7378;0.2975;85755;2021-05-03 15:11:03:047
1.166;-9.7199;0.3304;85805;2021-05-03 15:11:03:097
1.0977;-9.7055;0.3513;85855;2021-05-03 15:11:03:147
1.0918;-9.7318;0.343;85905;2021-05-03 15:11:03:197
1.0918;-9.7318;0.343;85955;2021-05-03 15:11:03:247
1.1504;-9.7366;0.3077;86005;2021-05-03 15:11:03:297
1.1456;-9.7091;0.2676;86055;2021-05-03 15:11:03:347
1.1456;-9.7091;0.2676;86104;2021-05-03 15:11:03:396
1.163;-9.7426;0.325;86155;2021-05-03 15:11:03:447
1.139;-9.7097;0.349;86205;2021-05-03 15:11:03:497
1.139;-9.7211;0.3184;86255;2021-05-03 15:11:03:547
1.139;-9.7211;0.3184;86304;2021-05-03 15:11:03:596
1.1468;-9.727;0.2586;86355;2021-05-03 15:11:03:647
1.0918;-9.7145;0.2807;86405;2021-05-03 15:11:03:697
1.0918;-9.7145;0.2807;86455;2021-05-03 15:11:03:747
1.0983;-9.7258;0.337;86505;2021-05-03 15:11:03:797
1.1648;-9.7157;0.3472;86555;2021-05-03 15:11:03:847
1.078;-9.7246;0.2993;86605;2021-05-03 15:11:03:897
1.078;-9.7246;0.2993;86655;2021-05-03 15:11:03:947
1.1552;-9.7354;0.3083;86705;2021-05-03 15:11:03:997
1.1588;-9.7169;0.3525;86755;2021-05-03 15:11:04:047
1.1588;-9.7169;0.3525;86805;2021-05-03 15:11:04:097
1.1654;-9.7127;0.3825;86855;2021-05-03 15:11:04:147
1.1504;-9.7342;0.3394;86905;2021-05-03 15:11:04:197
1.075;-9.7384;0.2771;86955;2021-05-03 15:11:04:247
1.075;-9.7384;0.2771;87004;2021-05-03 15:11:04:296
1.1384;-9.7103;0.3561;87055;2021-05-03 15:11:04:347
1.1414;-9.7241;0.3801;87105;2021-05-03 15:11:04:397
1.1414;-9.7241;0.3801;87154;2021-05-03 15:11:04:446
1.0774;-9.7199;0.2837;87205;2021-05-03 15:11:04:497
1.1468;-9.751;0.3519;87255;2021-05-03 15:11:04:547
1.1468;-9.751;0.3519;87304;2021-05-03 15:11:04:596
1.1265;-9.7139;0.4004;87355;2021-05-03 15:11:04:647
1.1127;-9.7396;0.3406;87405;2021-05-03 15:11:04:697
1.1163;-9.7061;0.3537;87455;2021-05-03 15:11:04:747
1.1163;-9.7061;0.3537;87505;2021-05-03 15:11:04:797
1.2264;-9.7061;0.3843;87555;2021-05-03 15:11:04:847
1.0618;-9.76;0.3831;87604;2021-05-03 15:11:04:896
1.0618;-9.76;0.3831;87655;2021-05-03 15:11:04:947
1.1307;-9.7241;0.3011;87705;2021-05-03 15:11:04:997
1.1492;-9.7145;0.3897;87755;2021-05-03 15:11:05:047
1.0864;-9.7061;0.3909;87805;2021-05-03 15:11:05:097
1.0864;-9.7061;0.3909;87855;2021-05-03 15:11:05:147
1.1079;-9.7522;0.3376;87905;2021-05-03 15:11:05:197
1.1408;-9.7187;0.3543;87955;2021-05-03 15:11:05:247
1.1408;-9.7187;0.3543;88004;2021-05-03 15:11:05:296
1.145;-9.7235;0.3837;88055;2021-05-03 15:11:05:347
1.1432;-9.7312;0.3879;88105;2021-05-03 15:11:05:397
1.1241;-9.7073;0.3609;88155;2021-05-03 15:11:05:447
1.1241;-9.7073;0.3609;88205;2021-05-03 15:11:05:497
1.1121;-9.7438;0.3358;88255;2021-05-03 15:11:05:547
1.1546;-9.7079;0.3472;88305;2021-05-03 15:11:05:597
1.1546;-9.7079;0.3472;88355;2021-05-03 15:11:05:647
1.1343;-9.7199;0.3424;88405;2021-05-03 15:11:05:697
1.16;-9.745;0.3328;88454;2021-05-03 15:11:05:746
1.145;-9.7091;0.3855;88505;2021-05-03 15:11:05:797
1.145;-9.7091;0.3855;88555;2021-05-03 15:11:05:847
1.1073;-9.7258;0.3897;88605;2021-05-03 15:11:05:897
1.093;-9.7223;0.3059;88655;2021-05-03 15:11:05:947
1.093;-9.7223;0.3059;88704;2021-05-03 15:11:05:996
1.1289;-9.7348;0.2873;88755;2021-05-03 15:11:06:047
1.1301;-9.7163;0.3274;88805;2021-05-03 15:11:06:097
1.1121;-9.7258;0.3663;88855;2021-05-03 15:11:06:147
1.1121;-9.7258;0.3663;88905;2021-05-03 15:11:06:197
1.1277;-9.7019;0.3513;88955;2021-05-03 15:11:06:247
1.1271;-9.7462;0.3316;89005;2021-05-03 15:11:06:297
1.1271;-9.7462;0.3316;89055;2021-05-03 15:11:06:347
1.2139;-9.7061;0.3711;89105;2021-05-03 15:11:06:397
1.0678;-9.7336;0.3256;89155;2021-05-03 15:11:06:447
1.1313;-9.727;0.2897;89205;2021-05-03 15:11:06:497
1.1313;-9.727;0.2897;89254;2021-05-03 15:11:06:546
1.1821;-9.7235;0.3711;89305;2021-05-03 15:11:06:597
1.0511;-9.7246;0.3346;89355;2021-05-03 15:11:06:647
1.0511;-9.7246;0.3346;89405;2021-05-03 15:11:06:697
1.1498;-9.7217;0.3412;89455;2021-05-03 15:11:06:747
1.1205;-9.7336;0.3508;89505;2021-05-03 15:11:06:797
1.1959;-9.7157;0.346;89555;2021-05-03 15:11:06:847
1.1959;-9.7157;0.346;89605;2021-05-03 15:11:06:897
1.0475;-9.7384;0.2819;89654;2021-05-03 15:11:06:946
1.0936;-9.7282;0.3633;89704;2021-05-03 15:11:06:996
1.0936;-9.7282;0.3633;89755;2021-05-03 15:11:07:047
1.154;-9.7163;0.41;89805;2021-05-03 15:11:07:097
1.0211;-9.7408;0.2424;89855;2021-05-03 15:11:07:147
1.0211;-9.7408;0.2424;89905;2021-05-03 15:11:07:197
1.1396;-9.7258;0.2885;89954;2021-05-03 15:11:07:246
1.0977;-9.736;0.4028;90005;2021-05-03 15:11:07:297
1.0828;-9.7223;0.3047;90054;2021-05-03 15:11:07:346
1.0828;-9.7223;0.3047;90105;2021-05-03 15:11:07:397
1.1372;-9.7139;0.2604;90155;2021-05-03 15:11:07:447
1.0846;-9.7474;0.3705;90205;2021-05-03 15:11:07:497
1.1241;-9.7163;0.2975;90255;2021-05-03 15:11:07:547
1.1241;-9.7163;0.2975;90305;2021-05-03 15:11:07:597
1.1396;-9.7151;0.2933;90355;2021-05-03 15:11:07:647
1.0858;-9.7306;0.3789;90405;2021-05-03 15:11:07:697
1.0858;-9.7306;0.3789;90455;2021-05-03 15:11:07:747
1.1355;-9.7187;0.325;90505;2021-05-03 15:11:07:797
1.1498;-9.727;0.2508;90554;2021-05-03 15:11:07:846
1.0965;-9.7336;0.3238;90604;2021-05-03 15:11:07:896
1.0965;-9.7336;0.3238;90654;2021-05-03 15:11:07:946
1.139;-9.7235;0.3909;90705;2021-05-03 15:11:07:997
1.1516;-9.7211;0.3226;90755;2021-05-03 15:11:08:047
1.1516;-9.7211;0.3226;90805;2021-05-03 15:11:08:097
1.1097;-9.7103;0.3208;90855;2021-05-03 15:11:08:147
1.0588;-9.748;0.3364;90905;2021-05-03 15:11:08:197
1.2324;-9.7115;0.3178;90955;2021-05-03 15:11:08:247
1.2324;-9.7115;0.3178;91005;2021-05-03 15:11:08:297
1.0888;-9.7187;0.3352;91055;2021-05-03 15:11:08:347
1.1247;-9.7402;0.3944;91105;2021-05-03 15:11:08:397
1.1247;-9.7402;0.3944;91155;2021-05-03 15:11:08:447
1.1923;-9.7145;0.3508;91205;2021-05-03 15:11:08:497
1.0439;-9.7336;0.3089;91255;2021-05-03 15:11:08:547
1.0439;-9.7336;0.3089;91305;2021-05-03 15:11:08:597
1.0965;-9.7312;0.3202;91355;2021-05-03 15:11:08:647
1.2228;-9.7043;0.413;91405;2021-05-03 15:11:08:697
1.0032;-9.7462;0.3256;91455;2021-05-03 15:11:08:747
1.0032;-9.7462;0.3256;91505;2021-05-03 15:11:08:797
1.1199;-9.7288;0.2981;91555;2021-05-03 15:11:08:847
1.1648;-9.7055;0.3274;91604;2021-05-03 15:11:08:896
1.1648;-9.7055;0.3274;91655;2021-05-03 15:11:08:947
1.0989;-9.7462;0.3112;91705;2021-05-03 15:11:08:997
1.1337;-9.7187;0.3585;91755;2021-05-03 15:11:09:047
1.1672;-9.7127;0.4004;91805;2021-05-03 15:11:09:097
1.1672;-9.7127;0.4004;91855;2021-05-03 15:11:09:147
1.0678;-9.7402;0.3729;91905;2021-05-03 15:11:09:197
1.1031;-9.7252;0.3029;91955;2021-05-03 15:11:09:247
1.1031;-9.7252;0.3029;92005;2021-05-03 15:11:09:297
1.1169;-9.7241;0.3029;92054;2021-05-03 15:11:09:346
1.1654;-9.7157;0.3687;92105;2021-05-03 15:11:09:397
1.0792;-9.727;0.3166;92155;2021-05-03 15:11:09:447
1.0792;-9.727;0.3166;92205;2021-05-03 15:11:09:497
1.0654;-9.736;0.2879;92255;2021-05-03 15:11:09:547
1.1672;-9.7049;0.3669;92305;2021-05-03 15:11:09:597
1.1672;-9.7049;0.3669;92355;2021-05-03 15:11:09:647
1.1779;-9.7384;0.3136;92405;2021-05-03 15:11:09:697
1.1582;-9.7169;0.3376;92455;2021-05-03 15:11:09:747
1.1768;-9.7199;0.422;92505;2021-05-03 15:11:09:797
1.1768;-9.7199;0.422;92555;2021-05-03 15:11:09:847
1.0882;-9.7396;0.3879;92605;2021-05-03 15:11:09:897
1.1313;-9.7169;0.3118;92655;2021-05-03 15:11:09:947
1.1313;-9.7169;0.3118;92705;2021-05-03 15:11:09:997
1.0678;-9.7169;0.3466;92755;2021-05-03 15:11:10:047
1.0534;-9.7378;0.2771;92805;2021-05-03 15:11:10:097
1.1504;-9.7223;0.3035;92855;2021-05-03 15:11:10:147
1.1504;-9.7223;0.3035;92905;2021-05-03 15:11:10:197
1.2019;-9.7115;0.4292;92955;2021-05-03 15:11:10:247
1.1504;-9.733;0.4286;93005;2021-05-03 15:11:10:297
1.1504;-9.733;0.4286;93055;2021-05-03 15:11:10:347
1.175;-9.7055;0.3424;93104;2021-05-03 15:11:10:396
1.078;-9.7354;0.3364;93155;2021-05-03 15:11:10:447
1.1019;-9.7438;0.3286;93205;2021-05-03 15:11:10:497
1.1019;-9.7438;0.3286;93255;2021-05-03 15:11:10:547
1.1606;-9.7067;0.2807;93305;2021-05-03 15:11:10:597
1.1127;-9.7396;0.3513;93355;2021-05-03 15:11:10:647
1.1127;-9.7396;0.3513;93405;2021-05-03 15:11:10:697
1.0912;-9.7199;0.398;93455;2021-05-03 15:11:10:747
1.1259;-9.7211;0.3525;93505;2021-05-03 15:11:10:797
1.1773;-9.7223;0.3298;93555;2021-05-03 15:11:10:847
1.1773;-9.7223;0.3298;93605;2021-05-03 15:11:10:897
1.0762;-9.736;0.3693;93654;2021-05-03 15:11:10:946
1.1821;-9.7241;0.404;93705;2021-05-03 15:11:10:997
1.1821;-9.7241;0.404;93755;2021-05-03 15:11:11:047
1.1396;-9.7121;0.3298;93805;2021-05-03 15:11:11:097
0.9469;-9.7402;0.2987;93855;2021-05-03 15:11:11:147
1.1121;-9.7282;0.3268;93905;2021-05-03 15:11:11:197
1.1121;-9.7282;0.3268;93955;2021-05-03 15:11:11:247
1.221;-9.6953;0.3304;94005;2021-05-03 15:11:11:297
1.1115;-9.76;0.3412;94055;2021-05-03 15:11:11:347
1.1115;-9.76;0.3412;94105;2021-05-03 15:11:11:397
1.1438;-9.7091;0.3478;94155;2021-05-03 15:11:11:447
1.1432;-9.7288;0.3472;94205;2021-05-03 15:11:11:497
1.1456;-9.7223;0.3615;94255;2021-05-03 15:11:11:547
1.1456;-9.7223;0.3615;94305;2021-05-03 15:11:11:597
1.0594;-9.7384;0.3777;94355;2021-05-03 15:11:11:647
1.087;-9.7187;0.3023;94405;2021-05-03 15:11:11:697
1.087;-9.7187;0.3023;94455;2021-05-03 15:11:11:747
1.0433;-9.7426;0.2705;94505;2021-05-03 15:11:11:797
1.0732;-9.7241;0.3567;94555;2021-05-03 15:11:11:847
1.0732;-9.7241;0.3567;94604;2021-05-03 15:11:11:896
1.2887;-9.7187;0.4507;94655;2021-05-03 15:11:11:947
1.1175;-9.7252;0.3693;94705;2021-05-03 15:11:11:997
1.0175;-9.73;0.2406;94754;2021-05-03 15:11:12:046
1.0175;-9.73;0.2406;94805;2021-05-03 15:11:12:097
1.2294;-9.7223;0.3861;94855;2021-05-03 15:11:12:147
1.057;-9.7312;0.3573;94905;2021-05-03 15:11:12:197
1.057;-9.7312;0.3573;94955;2021-05-03 15:11:12:247
1.0648;-9.736;0.3035;95005;2021-05-03 15:11:12:297
1.0971;-9.7264;0.3861;95054;2021-05-03 15:11:12:346
1.087;-9.7318;0.3041;95105;2021-05-03 15:11:12:397
1.087;-9.7318;0.3041;95155;2021-05-03 15:11:12:447
1.1654;-9.7121;0.3639;95205;2021-05-03 15:11:12:497
1.1115;-9.7348;0.3699;95255;2021-05-03 15:11:12:547
1.1115;-9.7348;0.3699;95306;2021-05-03 15:11:12:598
1.1384;-9.73;0.2969;95355;2021-05-03 15:11:12:647
1.1247;-9.7235;0.34;95404;2021-05-03 15:11:12:696
1.1031;-9.7061;0.349;95455;2021-05-03 15:11:12:747
1.1031;-9.7061;0.349;95505;2021-05-03 15:11:12:797
1.1468;-9.7444;0.3029;95555;2021-05-03 15:11:12:847
1.0888;-9.7241;0.3609;95605;2021-05-03 15:11:12:897
1.0888;-9.7241;0.3609;95655;2021-05-03 15:11:12:947
1.081;-9.7127;0.3519;95705;2021-05-03 15:11:12:997
1.0965;-9.7414;0.316;95755;2021-05-03 15:11:13:047
1.1678;-9.7187;0.3238;95804;2021-05-03 15:11:13:096
1.1678;-9.7187;0.3238;95855;2021-05-03 15:11:13:147
1.0726;-9.727;0.3352;95905;2021-05-03 15:11:13:197
1.1917;-9.7223;0.3633;95955;2021-05-03 15:11:13:247
1.1917;-9.7223;0.3633;96004;2021-05-03 15:11:13:296
1.1169;-9.7205;0.3897;96055;2021-05-03 15:11:13:347
1.1414;-9.7205;0.3274;96105;2021-05-03 15:11:13:397
1.093;-9.7588;0.2999;96154;2021-05-03 15:11:13:446
1.093;-9.7588;0.2999;96205;2021-05-03 15:11:13:497
1.1414;-9.6977;0.3561;96255;2021-05-03 15:11:13:547
1.0283;-9.745;0.3735;96305;2021-05-03 15:11:13:597
1.0283;-9.745;0.3735;96355;2021-05-03 15:11:13:647
1.1384;-9.7151;0.3585;96405;2021-05-03 15:11:13:697
1.1067;-9.7205;0.2951;96455;2021-05-03 15:11:13:747
1.1558;-9.7348;0.3364;96505;2021-05-03 15:11:13:797
1.1558;-9.7348;0.3364;96555;2021-05-03 15:11:13:847
1.1025;-9.7235;0.3825;96605;2021-05-03 15:11:13:897
1.1456;-9.7252;0.349;96654;2021-05-03 15:11:13:946
1.1456;-9.7252;0.349;96705;2021-05-03 15:11:13:997
1.1241;-9.7211;0.3442;96755;2021-05-03 15:11:14:047
1.0762;-9.7246;0.2993;96805;2021-05-03 15:11:14:097
1.142;-9.7294;0.3549;96855;2021-05-03 15:11:14:147
1.142;-9.7294;0.3549;96905;2021-05-03 15:11:14:197
1.1295;-9.7217;0.3645;96955;2021-05-03 15:11:14:247
1.0924;-9.7294;0.343;97005;2021-05-03 15:11:14:297
1.0924;-9.7294;0.343;97055;2021-05-03 15:11:14:347
1.0684;-9.7282;0.3184;97104;2021-05-03 15:11:14:396
1.1462;-9.7294;0.3286;97155;2021-05-03 15:11:14:447
1.1343;-9.73;0.3418;97205;2021-05-03 15:11:14:497
1.1343;-9.73;0.3418;97255;2021-05-03 15:11:14:547
1.1169;-9.7121;0.3879;97305;2021-05-03 15:11:14:597
1.1396;-9.7312;0.3525;97355;2021-05-03 15:11:14:647
1.1396;-9.7312;0.3525;97404;2021-05-03 15:11:14:696
1.1349;-9.7115;0.3334;97455;2021-05-03 15:11:14:747
1.1259;-9.7438;0.3238;97505;2021-05-03 15:11:14:797
1.0983;-9.7246;0.3442;97554;2021-05-03 15:11:14:846
1.0983;-9.7246;0.3442;97605;2021-05-03 15:11:14:897
1.1205;-9.7258;0.3454;97655;2021-05-03 15:11:14:947
1.1037;-9.7294;0.3442;97705;2021-05-03 15:11:14:997
1.1037;-9.7294;0.3442;97754;2021-05-03 15:11:15:046
1.163;-9.7103;0.3394;97805;2021-05-03 15:11:15:097
1.0858;-9.7294;0.3448;97856;2021-05-03 15:11:15:148
1.1558;-9.7157;0.3478;97905;2021-05-03 15:11:15:197
1.1558;-9.7157;0.3478;97955;2021-05-03 15:11:15:247
1.1486;-9.7217;0.3687;98005;2021-05-03 15:11:15:297
1.1013;-9.736;0.2981;98055;2021-05-03 15:11:15:347
1.1013;-9.736;0.2981;98105;2021-05-03 15:11:15:397
1.1211;-9.733;0.3789;98155;2021-05-03 15:11:15:447
1.1325;-9.7115;0.3783;98205;2021-05-03 15:11:15:497
1.0642;-9.73;0.3226;98255;2021-05-03 15:11:15:547
1.0642;-9.73;0.3226;98305;2021-05-03 15:11:15:597
1.1438;-9.7318;0.3112;98355;2021-05-03 15:11:15:647
1.0648;-9.73;0.3418;98405;2021-05-03 15:11:15:697
1.0648;-9.73;0.3418;98455;2021-05-03 15:11:15:747
1.1821;-9.7157;0.3711;98505;2021-05-03 15:11:15:797
1.1648;-9.7199;0.3496;98555;2021-05-03 15:11:15:847
1.1648;-9.7199;0.3496;98605;2021-05-03 15:11:15:897
1.0481;-9.7342;0.3041;98655;2021-05-03 15:11:15:947
1.1181;-9.7318;0.3508;98704;2021-05-03 15:11:15:996
1.1468;-9.7091;0.3226;98754;2021-05-03 15:11:16:046
1.1468;-9.7091;0.3226;98805;2021-05-03 15:11:16:097
1.1079;-9.7456;0.3549;98855;2021-05-03 15:11:16:147
1.1271;-9.7151;0.3747;98905;2021-05-03 15:11:16:197
1.1271;-9.7151;0.3747;98955;2021-05-03 15:11:16:247
1.142;-9.7205;0.3376;99005;2021-05-03 15:11:16:297
1.0924;-9.7438;0.3597;99055;2021-05-03 15:11:16:347
1.1169;-9.7288;0.3328;99105;2021-05-03 15:11:16:397
1.1169;-9.7288;0.3328;99155;2021-05-03 15:11:16:447
1.16;-9.7115;0.413;99205;2021-05-03 15:11:16:497
1.0534;-9.7223;0.3573;99255;2021-05-03 15:11:16:547
1.0534;-9.7223;0.3573;99305;2021-05-03 15:11:16:597
1.1241;-9.7438;0.2496;99355;2021-05-03 15:11:16:647
1.2186;-9.6929;0.3879;99405;2021-05-03 15:11:16:697
1.0463;-9.7402;0.422;99455;2021-05-03 15:11:16:747
1.0463;-9.7402;0.422;99505;2021-05-03 15:11:16:797
1.1049;-9.7384;0.3071;99555;2021-05-03 15:11:16:847
1.2139;-9.7115;0.3508;99605;2021-05-03 15:11:16:897
1.2139;-9.7115;0.3508;99655;2021-05-03 15:11:16:947
1.0912;-9.7246;0.398;99706;2021-05-03 15:11:16:998
1.1456;-9.7288;0.3274;99755;2021-05-03 15:11:17:047
1.1181;-9.7241;0.3424;99805;2021-05-03 15:11:17:097
1.1181;-9.7241;0.3424;99855;2021-05-03 15:11:17:147
1.151;-9.7139;0.3424;99905;2021-05-03 15:11:17:197
1.1576;-9.7318;0.3555;99955;2021-05-03 15:11:17:247
1.1576;-9.7318;0.3555;100005;2021-05-03 15:11:17:297
1.1193;-9.7157;0.3651;100054;2021-05-03 15:11:17:346
1.1097;-9.7252;0.3549;100105;2021-05-03 15:11:17:397
1.1684;-9.7169;0.3567;100155;2021-05-03 15:11:17:447
1.1684;-9.7169;0.3567;100205;2021-05-03 15:11:17:497
1.0792;-9.7288;0.2981;100255;2021-05-03 15:11:17:547
1.1109;-9.7444;0.2999;100305;2021-05-03 15:11:17:597
1.1109;-9.7444;0.2999;100355;2021-05-03 15:11:17:647
1.1528;-9.7199;0.3843;100405;2021-05-03 15:11:17:697
1.1049;-9.7115;0.3645;100455;2021-05-03 15:11:17:747
1.1133;-9.7486;0.2891;100505;2021-05-03 15:11:17:797
1.1133;-9.7486;0.2891;100554;2021-05-03 15:11:17:846
1.166;-9.6995;0.3783;100604;2021-05-03 15:11:17:896
1.0672;-9.7396;0.3328;100655;2021-05-03 15:11:17:947
1.0672;-9.7396;0.3328;100705;2021-05-03 15:11:17:997
1.1145;-9.733;0.2855;100755;2021-05-03 15:11:18:047
1.1313;-9.7145;0.3412;100805;2021-05-03 15:11:18:097
1.0642;-9.7396;0.3657;100855;2021-05-03 15:11:18:147
1.0642;-9.7396;0.3657;100905;2021-05-03 15:11:18:197
1.1414;-9.7258;0.34;100955;2021-05-03 15:11:18:247
1.1384;-9.7241;0.3597;101005;2021-05-03 15:11:18:297
1.1384;-9.7241;0.3597;101055;2021-05-03 15:11:18:347
1.0582;-9.73;0.2897;101105;2021-05-03 15:11:18:397
1.1558;-9.7175;0.3573;101155;2021-05-03 15:11:18:447
1.1408;-9.7294;0.3777;101205;2021-05-03 15:11:18:497
1.1408;-9.7294;0.3777;101255;2021-05-03 15:11:18:547
1.0936;-9.7336;0.2891;101305;2021-05-03 15:11:18:597
1.1229;-9.7211;0.3603;101355;2021-05-03 15:11:18:647
1.1229;-9.7211;0.3603;101405;2021-05-03 15:11:18:697
1.1055;-9.7187;0.3513;101455;2021-05-03 15:11:18:747
1.0924;-9.7408;0.313;101505;2021-05-03 15:11:18:797
1.1414;-9.7193;0.3944;101555;2021-05-03 15:11:18:847
1.1414;-9.7193;0.3944;101604;2021-05-03 15:11:18:896
1.0624;-9.7211;0.3807;101655;2021-05-03 15:11:18:947
1.1881;-9.7438;0.2903;101705;2021-05-03 15:11:18:997
1.1881;-9.7438;0.2903;101755;2021-05-03 15:11:19:047
1.1726;-9.7097;0.3508;101805;2021-05-03 15:11:19:097
1.0924;-9.7378;0.4232;101855;2021-05-03 15:11:19:147
1.1151;-9.7103;0.3142;101905;2021-05-03 15:11:19:197
1.1151;-9.7103;0.3142;101955;2021-05-03 15:11:19:247
1.0726;-9.7354;0.3537;102005;2021-05-03 15:11:19:297
1.1289;-9.7318;0.4046;102055;2021-05-03 15:11:19:347
1.1289;-9.7318;0.4046;102105;2021-05-03 15:11:19:397
1.2007;-9.7091;0.3615;102155;2021-05-03 15:11:19:447
1.1151;-9.7282;0.3065;102205;2021-05-03 15:11:19:497
1.1151;-9.7282;0.3065;102255;2021-05-03 15:11:19:547
1.0463;-9.73;0.2981;102304;2021-05-03 15:11:19:596
1.2133;-9.7199;0.346;102355;2021-05-03 15:11:19:647
1.1588;-9.7109;0.395;102405;2021-05-03 15:11:19:697
1.1588;-9.7109;0.395;102455;2021-05-03 15:11:19:747
0.9786;-9.751;0.331;102505;2021-05-03 15:11:19:797
1.2216;-9.6923;0.3448;102555;2021-05-03 15:11:19:847
1.2216;-9.6923;0.3448;102605;2021-05-03 15:11:19:897
1.136;-9.7318;0.407;102654;2021-05-03 15:11:19:946
1.0211;-9.7498;0.3071;102704;2021-05-03 15:11:19:996
1.2276;-9.6869;0.3633;102755;2021-05-03 15:11:20:047
1.2276;-9.6869;0.3633;102805;2021-05-03 15:11:20:097
1.1079;-9.7498;0.3909;102854;2021-05-03 15:11:20:146
1.1366;-9.7115;0.343;102905;2021-05-03 15:11:20:197
1.1366;-9.7115;0.343;102955;2021-05-03 15:11:20:247
1.1588;-9.7288;0.3657;103005;2021-05-03 15:11:20:297
1.1821;-9.7091;0.4357;103055;2021-05-03 15:11:20:347
1.1037;-9.7378;0.4028;103105;2021-05-03 15:11:20:397
1.1037;-9.7378;0.4028;103155;2021-05-03 15:11:20:447
1.1199;-9.7145;0.3609;103205;2021-05-03 15:11:20:497
1.0924;-9.7306;0.3813;103255;2021-05-03 15:11:20:547
1.0924;-9.7306;0.3813;103305;2021-05-03 15:11:20:597
1.1414;-9.7169;0.4501;103355;2021-05-03 15:11:20:647
1.23;-9.7312;0.4435;103405;2021-05-03 15:11:20:697
1.16;-9.6947;0.3442;103455;2021-05-03 15:11:20:747
1.16;-9.6947;0.3442;103505;2021-05-03 15:11:20:797
1.0193;-9.7414;0.3639;103555;2021-05-03 15:11:20:847
1.1067;-9.7241;0.3352;103605;2021-05-03 15:11:20:897
1.1067;-9.7241;0.3352;103655;2021-05-03 15:11:20:947
1.2276;-9.7264;0.598;103705;2021-05-03 15:11:20:997
1.2408;-9.7067;0.504;103755;2021-05-03 15:11:21:047
1.011;-9.7384;0.2538;103805;2021-05-03 15:11:21:097
1.011;-9.7384;0.2538;103855;2021-05-03 15:11:21:147
1.0361;-9.7336;0.3017;103905;2021-05-03 15:11:21:197
1.1408;-9.7061;0.5243;103955;2021-05-03 15:11:21:247
1.1408;-9.7061;0.5243;104005;2021-05-03 15:11:21:297
1.1007;-9.7264;0.3418;104055;2021-05-03 15:11:21:347
1.1959;-9.7241;0.2406;104105;2021-05-03 15:11:21:397
1.0385;-9.7223;0.4878;104155;2021-05-03 15:11:21:447
1.0385;-9.7223;0.4878;104205;2021-05-03 15:11:21:497
1.1444;-9.7354;0.398;104255;2021-05-03 15:11:21:547
1.2558;-9.7025;0.2987;104305;2021-05-03 15:11:21:597
1.2558;-9.7025;0.2987;104355;2021-05-03 15:11:21:647
1.1552;-9.7474;0.3184;104404;2021-05-03 15:11:21:696
1.087;-9.7001;0.4292;104455;2021-05-03 15:11:21:747
1.075;-9.7354;0.3657;104505;2021-05-03 15:11:21:797
1.075;-9.7354;0.3657;104555;2021-05-03 15:11:21:847
1.1133;-9.7438;0.2735;104605;2021-05-03 15:11:21:897
1.1552;-9.7139;0.3597;104655;2021-05-03 15:11:21:947
1.1552;-9.7139;0.3597;104705;2021-05-03 15:11:21:997
1.16;-9.7199;0.3699;104755;2021-05-03 15:11:22:047
1.0666;-9.7175;0.3591;104805;2021-05-03 15:11:22:097
1.3066;-9.6983;0.3956;104855;2021-05-03 15:11:22:147
1.3066;-9.6983;0.3956;104905;2021-05-03 15:11:22:197
1.0265;-9.757;0.4076;104954;2021-05-03 15:11:22:246
1.1768;-9.7043;0.2705;105005;2021-05-03 15:11:22:297
1.1768;-9.7043;0.2705;105055;2021-05-03 15:11:22:347
1.0894;-9.7318;0.4262;105104;2021-05-03 15:11:22:396
1.1103;-9.7049;0.4064;105155;2021-05-03 15:11:22:447
1.1917;-9.7402;0.3334;105205;2021-05-03 15:11:22:497
1.1917;-9.7402;0.3334;105255;2021-05-03 15:11:22:547
1.0121;-9.7139;0.3364;105305;2021-05-03 15:11:22:597
1.057;-9.7462;0.3831;105355;2021-05-03 15:11:22:647
1.057;-9.7462;0.3831;105405;2021-05-03 15:11:22:697
1.2773;-9.7019;0.413;105455;2021-05-03 15:11:22:747
1.2809;-9.7127;0.3496;105505;2021-05-03 15:11:22:797
1.0223;-9.739;0.2412;105555;2021-05-03 15:11:22:847
1.0223;-9.739;0.2412;105605;2021-05-03 15:11:22:897
1.163;-9.7175;0.4226;105655;2021-05-03 15:11:22:947
1.163;-9.6899;0.4986;105704;2021-05-03 15:11:22:996
1.163;-9.6899;0.4986;105755;2021-05-03 15:11:23:047
1.0391;-9.7767;0.2783;105805;2021-05-03 15:11:23:097
1.1462;-9.7163;0.3262;105855;2021-05-03 15:11:23:147
1.1462;-9.7163;0.3262;105904;2021-05-03 15:11:23:196
1.1702;-9.7163;0.4603;105955;2021-05-03 15:11:23:247
0.9373;-9.7336;0.2807;106005;2021-05-03 15:11:23:297
1.2504;-9.727;0.2173;106055;2021-05-03 15:11:23:347
1.2504;-9.727;0.2173;106105;2021-05-03 15:11:23:397
1.1977;-9.73;0.4411;106155;2021-05-03 15:11:23:447
1.2157;-9.6947;0.398;106204;2021-05-03 15:11:23:496
1.2157;-9.6947;0.398;106255;2021-05-03 15:11:23:547
1.0092;-9.7492;0.2556;106305;2021-05-03 15:11:23:597
1.2354;-9.7151;0.3651;106355;2021-05-03 15:11:23:647
1.139;-9.7079;0.431;106405;2021-05-03 15:11:23:697
1.139;-9.7079;0.431;106454;2021-05-03 15:11:23:746
1.0193;-9.748;0.3023;106505;2021-05-03 15:11:23:797
1.2378;-9.7073;0.3208;106555;2021-05-03 15:11:23:847
1.2378;-9.7073;0.3208;106605;2021-05-03 15:11:23:897
1.0546;-9.736;0.316;106655;2021-05-03 15:11:23:947
1.1791;-9.7169;0.343;106705;2021-05-03 15:11:23:997
1.1576;-9.7055;0.2963;106754;2021-05-03 15:11:24:046
1.1576;-9.7055;0.2963;106805;2021-05-03 15:11:24:097
1.0529;-9.7235;0.2843;106855;2021-05-03 15:11:24:147
1.0636;-9.763;0.3011;106905;2021-05-03 15:11:24:197
1.0636;-9.763;0.3011;106955;2021-05-03 15:11:24:247
1.3234;-9.6995;0.4226;107005;2021-05-03 15:11:24:297
1.0606;-9.7312;0.3783;107055;2021-05-03 15:11:24:347
1.1259;-9.7288;0.1101;107105;2021-05-03 15:11:24:397
1.1259;-9.7288;0.1101;107155;2021-05-03 15:11:24:447
1.324;-9.7127;0.4357;107205;2021-05-03 15:11:24:497
1.0008;-9.7258;0.477;107255;2021-05-03 15:11:24:547
1.0008;-9.7258;0.477;107304;2021-05-03 15:11:24:596
0.9601;-9.736;0.264;107355;2021-05-03 15:11:24:647
1.2103;-9.7384;0.2687;107405;2021-05-03 15:11:24:697
1.1444;-9.7414;0.264;107455;2021-05-03 15:11:24:747
1.1444;-9.7414;0.264;107505;2021-05-03 15:11:24:797
1.0942;-9.6959;0.4076;107555;2021-05-03 15:11:24:847
1.0624;-9.7504;0.3765;107605;2021-05-03 15:11:24:897
1.0624;-9.7504;0.3765;107655;2021-05-03 15:11:24:947
1.2055;-9.7534;0.2472;107705;2021-05-03 15:11:24:997
1.0301;-9.7336;0.2322;107755;2021-05-03 15:11:25:047
1.2228;-9.654;0.3214;107805;2021-05-03 15:11:25:097
1.2228;-9.654;0.3214;107855;2021-05-03 15:11:25:147
1.2031;-9.7013;0.3789;107905;2021-05-03 15:11:25:197
0.8386;-9.8288;0.2179;107955;2021-05-03 15:11:25:247
0.8386;-9.8288;0.2179;108005;2021-05-03 15:11:25:297
1.0014;-9.6899;0.1897;108055;2021-05-03 15:11:25:347
1.2749;-9.7121;0.4627;108105;2021-05-03 15:11:25:397
1.0822;-9.73;0.3926;108155;2021-05-03 15:11:25:447
1.0822;-9.73;0.3926;108205;2021-05-03 15:11:25:497
1.0092;-9.7648;0.1724;108255;2021-05-03 15:11:25:547
1.2785;-9.6959;0.3897;108305;2021-05-03 15:11:25:597
1.2785;-9.6959;0.3897;108355;2021-05-03 15:11:25:647
0.9984;-9.7761;0.328;108405;2021-05-03 15:11:25:697
0.9924;-9.7091;0.1867;108455;2021-05-03 15:11:25:747
1.1432;-9.7288;0.3298;108505;2021-05-03 15:11:25:797
1.1432;-9.7288;0.3298;108555;2021-05-03 15:11:25:847
1.0546;-9.7492;0.2065;108605;2021-05-03 15:11:25:897
1.1121;-9.7079;0.2987;108655;2021-05-03 15:11:25:947
1.1121;-9.7079;0.2987;108705;2021-05-03 15:11:25:997
1.1289;-9.7246;0.3663;108755;2021-05-03 15:11:26:047
1.0684;-9.751;0.2125;108805;2021-05-03 15:11:26:097
1.1025;-9.7211;0.2227;108855;2021-05-03 15:11:26:147
1.1025;-9.7211;0.2227;108905;2021-05-03 15:11:26:197
1.0546;-9.7175;0.2837;108955;2021-05-03 15:11:26:247
1.0145;-9.754;0.1814;109005;2021-05-03 15:11:26:297
1.0145;-9.754;0.1814;109055;2021-05-03 15:11:26:347
1.0798;-9.7354;0.1933;109105;2021-05-03 15:11:26:397
1.1295;-9.7127;0.313;109155;2021-05-03 15:11:26:447
1.0738;-9.73;0.264;109205;2021-05-03 15:11:26:497
1.0738;-9.73;0.264;109255;2021-05-03 15:11:26:547
1.1001;-9.7408;0.1861;109305;2021-05-03 15:11:26:597
1.0864;-9.7217;0.228;109354;2021-05-03 15:11:26:646
1.0864;-9.7217;0.228;109405;2021-05-03 15:11:26:697
1.0385;-9.7342;0.2903;109455;2021-05-03 15:11:26:747
1.0894;-9.7217;0.2059;109505;2021-05-03 15:11:26:797
1.0762;-9.7528;0.1909;109555;2021-05-03 15:11:26:847
1.0762;-9.7528;0.1909;109605;2021-05-03 15:11:26:897
1.1229;-9.7205;0.2915;109655;2021-05-03 15:11:26:947
1.0642;-9.7318;0.2388;109705;2021-05-03 15:11:26:997
1.0642;-9.7318;0.2388;109755;2021-05-03 15:11:27:047
1.1558;-9.7396;0.2897;109805;2021-05-03 15:11:27:097
1.0666;-9.7246;0.3029;109855;2021-05-03 15:11:27:147
1.0666;-9.7246;0.3029;109905;2021-05-03 15:11:27:197
1.0624;-9.7402;0.2352;109954;2021-05-03 15:11:27:246
1.1007;-9.7235;0.2819;110005;2021-05-03 15:11:27:297
1.0888;-9.7462;0.2801;110055;2021-05-03 15:11:27:347
1.0888;-9.7462;0.2801;110105;2021-05-03 15:11:27:397
1.0588;-9.7091;0.2795;110155;2021-05-03 15:11:27:447
1.0858;-9.7474;0.2598;110205;2021-05-03 15:11:27:497
1.0858;-9.7474;0.2598;110254;2021-05-03 15:11:27:546
1.1546;-9.7223;0.2939;110304;2021-05-03 15:11:27:596
1.1636;-9.7366;0.3573;110355;2021-05-03 15:11:27:647
1.1732;-9.7199;0.2843;110405;2021-05-03 15:11:27:697
1.1732;-9.7199;0.2843;110454;2021-05-03 15:11:27:746
1.0391;-9.736;0.2233;110505;2021-05-03 15:11:27:797
1.0606;-9.7384;0.3017;110555;2021-05-03 15:11:27:847
1.0606;-9.7384;0.3017;110604;2021-05-03 15:11:27:896
1.0786;-9.7318;0.2322;110655;2021-05-03 15:11:27:947
1.154;-9.7121;0.2245;110705;2021-05-03 15:11:27:997
1.0768;-9.7594;0.2903;110754;2021-05-03 15:11:28:046
1.0768;-9.7594;0.2903;110805;2021-05-03 15:11:28:097
1.1384;-9.727;0.2933;110855;2021-05-03 15:11:28:147
1.1821;-9.7534;0.2173;110905;2021-05-03 15:11:28:197
1.1821;-9.7534;0.2173;110954;2021-05-03 15:11:28:246
1.2731;-9.6839;0.3352;111005;2021-05-03 15:11:28:297
1.0762;-9.7504;0.41;111055;2021-05-03 15:11:28:347
1.0451;-9.7432;0.1873;111105;2021-05-03 15:11:28:397
1.0451;-9.7432;0.1873;111154;2021-05-03 15:11:28:446
1.1109;-9.7354;0.2263;111204;2021-05-03 15:11:28:496
1.1157;-9.7049;0.3597;111254;2021-05-03 15:11:28:546
1.1157;-9.7049;0.3597;111305;2021-05-03 15:11:28:597
1.2133;-9.6857;0.3909;111355;2021-05-03 15:11:28:647
1.1145;-9.7199;0.2406;111405;2021-05-03 15:11:28:697
1.0439;-9.7683;0.0742;111455;2021-05-03 15:11:28:747
1.0439;-9.7683;0.0742;111505;2021-05-03 15:11:28:797
1.1181;-9.6965;0.1628;111555;2021-05-03 15:11:28:847
1.1055;-9.7217;0.3136;111605;2021-05-03 15:11:28:897
1.1055;-9.7217;0.3136;111655;2021-05-03 15:11:28:947
1.1576;-9.73;0.2017;111705;2021-05-03 15:11:28:997
1.0744;-9.7139;0.1975;111754;2021-05-03 15:11:29:046
1.1271;-9.7049;0.413;111805;2021-05-03 15:11:29:097
1.1271;-9.7049;0.413;111855;2021-05-03 15:11:29:147
1.1349;-9.6863;0.4136;111905;2021-05-03 15:11:29:197
1.0002;-9.7169;0.3166;111955;2021-05-03 15:11:29:247
1.0002;-9.7169;0.3166;112004;2021-05-03 15:11:29:296
0.914;-9.7689;0.328;112055;2021-05-03 15:11:29:347
0.8595;-9.7731;0.3903;112105;2021-05-03 15:11:29:397
0.8015;-9.6486;0.3549;112155;2021-05-03 15:11:29:447
0.8015;-9.6486;0.3549;112205;2021-05-03 15:11:29:497
0.5716;-9.8671;0.3992;112255;2021-05-03 15:11:29:547
0.6171;-9.7767;0.5142;112305;2021-05-03 15:11:29:597
0.6171;-9.7767;0.5142;112355;2021-05-03 15:11:29:647
0.583;-9.7671;0.5142;112405;2021-05-03 15:11:29:697
0.3747;-9.9036;0.231;112455;2021-05-03 15:11:29:747
0.3585;-9.7366;0.2628;112505;2021-05-03 15:11:29:797
0.3585;-9.7366;0.2628;112555;2021-05-03 15:11:29:847
0.6117;-9.7558;0.7835;112605;2021-05-03 15:11:29:897
0.7805;-9.6666;0.7883;112655;2021-05-03 15:11:29:947
0.7805;-9.6666;0.7883;112705;2021-05-03 15:11:29:997
0.4202;-9.8539;0.3256;112754;2021-05-03 15:11:30:046
0.4345;-9.7881;0.1155;112805;2021-05-03 15:11:30:097
0.6315;-9.7235;0.6536;112855;2021-05-03 15:11:30:147
0.6315;-9.7235;0.6536;112905;2021-05-03 15:11:30:197
0.7135;-9.8096;0.8673;112955;2021-05-03 15:11:30:247
0.3555;-9.8503;0.6333;113005;2021-05-03 15:11:30:297
0.3555;-9.8503;0.6333;113054;2021-05-03 15:11:30:346
0.3226;-9.7558;0.2257;113105;2021-05-03 15:11:30:397
0.5991;-9.8264;0.4579;113155;2021-05-03 15:11:30:447
0.8051;-9.754;0.6285;113205;2021-05-03 15:11:30:497
0.8051;-9.754;0.6285;113255;2021-05-03 15:11:30:547
0.8332;-9.8072;0.5363;113304;2021-05-03 15:11:30:596
0.9858;-9.7474;0.5082;113355;2021-05-03 15:11:30:647
0.9858;-9.7474;0.5082;113405;2021-05-03 15:11:30:697
1.1438;-9.6397;0.8158;113454;2021-05-03 15:11:30:746
1.309;-9.7354;0.89;113505;2021-05-03 15:11:30:797
1.0409;-9.6965;0.5776;113555;2021-05-03 15:11:30:847
1.0409;-9.6965;0.5776;113605;2021-05-03 15:11:30:897
1.1977;-9.7223;0.4142;113654;2021-05-03 15:11:30:946
1.3144;-9.6007;0.7165;113705;2021-05-03 15:11:30:997
1.3144;-9.6007;0.7165;113755;2021-05-03 15:11:31:047
1.728;-9.6151;0.8529;113804;2021-05-03 15:11:31:096
1.3779;-9.6756;0.5728;113855;2021-05-03 15:11:31:147
1.3779;-9.6756;0.5728;113905;2021-05-03 15:11:31:197
1.318;-9.8258;0.3358;113954;2021-05-03 15:11:31:246
1.822;-9.5355;0.6674;114005;2021-05-03 15:11:31:297
1.4742;-9.6205;0.8056;114055;2021-05-03 15:11:31:347
1.4742;-9.6205;0.8056;114105;2021-05-03 15:11:31:397
1.4096;-9.7594;0.5118;114155;2021-05-03 15:11:31:447
1.6017;-9.6492;0.6177;114205;2021-05-03 15:11:31:497
1.6017;-9.6492;0.6177;114255;2021-05-03 15:11:31:547
1.7897;-9.6361;0.7129;114305;2021-05-03 15:11:31:597
1.3354;-9.6007;0.4711;114355;2021-05-03 15:11:31:647
1.5778;-9.6732;0.6267;114405;2021-05-03 15:11:31:697
1.5778;-9.6732;0.6267;114455;2021-05-03 15:11:31:747
1.3904;-9.6738;0.6823;114505;2021-05-03 15:11:31:797
1.336;-9.6959;0.7572;114555;2021-05-03 15:11:31:847
1.336;-9.6959;0.7572;114605;2021-05-03 15:11:31:897
2.0369;-9.6498;0.5261;114655;2021-05-03 15:11:31:947
2.1368;-9.4954;0.4603;114705;2021-05-03 15:11:31:997
1.7352;-9.5636;0.7207;114754;2021-05-03 15:11:32:046
1.7352;-9.5636;0.7207;114804;2021-05-03 15:11:32:096
1.5706;-9.7438;0.7147;114855;2021-05-03 15:11:32:147
1.5431;-9.3739;0.5201;114905;2021-05-03 15:11:32:197
1.5431;-9.3739;0.5201;114954;2021-05-03 15:11:32:246
1.0768;-9.9509;0.1215;115005;2021-05-03 15:11:32:297
2.1596;-9.5391;0.8039;115054;2021-05-03 15:11:32:346
1.8783;-9.5756;0.4902;115105;2021-05-03 15:11:32:397
1.8783;-9.5756;0.4902;115155;2021-05-03 15:11:32:447
1.7011;-9.593;0.647;115205;2021-05-03 15:11:32:497
2.0596;-9.5864;0.7733;115255;2021-05-03 15:11:32:547
2.0596;-9.5864;0.7733;115305;2021-05-03 15:11:32:597
1.306;-9.7552;0.413;115355;2021-05-03 15:11:32:647
2.2188;-9.4583;0.8374;115404;2021-05-03 15:11:32:696
1.6831;-9.7288;0.5896;115455;2021-05-03 15:11:32:747
1.6831;-9.7288;0.5896;115505;2021-05-03 15:11:32:797
1.886;-9.5445;0.7093;115555;2021-05-03 15:11:32:847
1.7232;-9.6163;0.659;115604;2021-05-03 15:11:32:896
1.7232;-9.6163;0.659;115655;2021-05-03 15:11:32:947
1.6957;-9.6648;0.5345;115705;2021-05-03 15:11:32:997
1.816;-9.5882;0.6087;115755;2021-05-03 15:11:33:047
1.9914;-9.5056;0.7739;115804;2021-05-03 15:11:33:096
1.9914;-9.5056;0.7739;115855;2021-05-03 15:11:33:147
1.7526;-9.6863;0.3681;115905;2021-05-03 15:11:33:197
1.8423;-9.5906;0.7404;115955;2021-05-03 15:11:33:247
1.8423;-9.5906;0.7404;116005;2021-05-03 15:11:33:297
1.7855;-9.6139;0.4274;116055;2021-05-03 15:11:33:347
1.8585;-9.5948;0.6943;116105;2021-05-03 15:11:33:397
1.886;-9.5876;0.6387;116155;2021-05-03 15:11:33:447
1.886;-9.5876;0.6387;116205;2021-05-03 15:11:33:497
1.8687;-9.5618;0.6105;116255;2021-05-03 15:11:33:547
1.6897;-9.7318;0.4657;116305;2021-05-03 15:11:33:597
1.6897;-9.7318;0.4657;116355;2021-05-03 15:11:33:647
1.9243;-9.487;0.7374;116405;2021-05-03 15:11:33:697
1.8202;-9.654;0.4334;116455;2021-05-03 15:11:33:747
1.6682;-9.648;0.5225;116505;2021-05-03 15:11:33:797
1.6682;-9.648;0.5225;116555;2021-05-03 15:11:33:847
1.8729;-9.581;0.5501;116605;2021-05-03 15:11:33:897
1.9782;-9.5523;0.6039;116655;2021-05-03 15:11:33:947
1.9782;-9.5523;0.6039;116705;2021-05-03 15:11:33:997
1.6682;-9.6642;0.4435;116755;2021-05-03 15:11:34:047
