sep=;
ACCELEROMETER X (m/s²);ACCELEROMETER Y (m/s²);ACCELEROMETER Z (m/s²);Time since start in ms ;YYYY-MO-DD HH-MI-SS_SSS
1.1678;-6.9845;-1.0068;5010;2021-05-03 20:41:29:734
1.0552;-8.0475;0.7697;5060;2021-05-03 20:41:29:784
1.0552;-8.0475;0.7697;5110;2021-05-03 20:41:29:834
-0.9367;-9.7905;0.5112;5160;2021-05-03 20:41:29:884
-0.9367;-9.7905;0.5112;5210;2021-05-03 20:41:29:934
-0.8266;-9.3763;0.0323;5260;2021-05-03 20:41:29:984
-0.8266;-9.3763;0.0323;5310;2021-05-03 20:41:30:034
0.6985;-9.6085;0.1832;5360;2021-05-03 20:41:30:084
0.6985;-9.6085;0.1832;5410;2021-05-03 20:41:30:134
-1.7125;-10.9493;-0.5734;5460;2021-05-03 20:41:30:184
-1.7125;-10.9493;-0.5734;5510;2021-05-03 20:41:30:234
-1.2121;-11.5335;-2.9389;5560;2021-05-03 20:41:30:284
-1.2121;-11.5335;-2.9389;5610;2021-05-03 20:41:30:334
3.1597;-16.9276;2.4696;5660;2021-05-03 20:41:30:384
3.1597;-16.9276;2.4696;5710;2021-05-03 20:41:30:434
3.143;-6.2519;-0.0204;5760;2021-05-03 20:41:30:484
3.143;-6.2519;-0.0204;5810;2021-05-03 20:41:30:534
1.0505;-4.6693;0.1688;5860;2021-05-03 20:41:30:584
1.0505;-4.6693;0.1688;5910;2021-05-03 20:41:30:634
-1.3653;-13.6164;-12.9945;5960;2021-05-03 20:41:30:684
-1.3653;-13.6164;-12.9945;6010;2021-05-03 20:41:30:734
2.1159;-7.9254;-0.9924;6060;2021-05-03 20:41:30:784
2.1159;-7.9254;-0.9924;6110;2021-05-03 20:41:30:834
1.5317;-7.8296;0.8344;6160;2021-05-03 20:41:30:884
1.5317;-7.8296;0.8344;6210;2021-05-03 20:41:30:934
-0.3023;-10.4872;1.9477;6260;2021-05-03 20:41:30:984
-0.3023;-10.4872;1.9477;6310;2021-05-03 20:41:31:034
-1.1833;-9.4984;0.2334;6360;2021-05-03 20:41:31:084
-1.1833;-9.4984;0.2334;6410;2021-05-03 20:41:31:134
-1.4682;-9.5032;0.0251;6460;2021-05-03 20:41:31:184
-1.4682;-9.5032;0.0251;6510;2021-05-03 20:41:31:234
-1.2791;-9.8791;-3.4536;6560;2021-05-03 20:41:31:284
-1.2791;-9.8791;-3.4536;6610;2021-05-03 20:41:31:334
-0.4411;-12.8263;-0.3795;6660;2021-05-03 20:41:31:384
-0.4411;-12.8263;-0.3795;6710;2021-05-03 20:41:31:434
1.5532;-13.6643;1.0546;6760;2021-05-03 20:41:31:484
1.5532;-13.6643;1.0546;6810;2021-05-03 20:41:31:534
4.783;-9.8192;0.6117;6860;2021-05-03 20:41:31:584
4.783;-9.8192;0.6117;6910;2021-05-03 20:41:31:634
1.0409;-6.7618;-2.9221;6960;2021-05-03 20:41:31:684
1.0409;-6.7618;-2.9221;7010;2021-05-03 20:41:31:734
-0.5848;-8.0092;-0.7434;7060;2021-05-03 20:41:31:784
-0.5848;-8.0092;-0.7434;7110;2021-05-03 20:41:31:834
-1.5832;-11.6388;-7.0928;7160;2021-05-03 20:41:31:884
-1.5832;-11.6388;-7.0928;7210;2021-05-03 20:41:31:934
-0.3789;-10.3914;1.3707;7260;2021-05-03 20:41:31:984
-0.3789;-10.3914;1.3707;7310;2021-05-03 20:41:32:034
1.8597;-8.9693;1.7514;7360;2021-05-03 20:41:32:084
1.8597;-8.9693;1.7514;7409;2021-05-03 20:41:32:133
-0.6039;-10.65;1.3324;7460;2021-05-03 20:41:32:184
-0.6039;-10.65;1.3324;7510;2021-05-03 20:41:32:234
-1.7891;-9.8192;0.3196;7560;2021-05-03 20:41:32:284
-1.7891;-9.8192;0.3196;7610;2021-05-03 20:41:32:334
-2.5169;-9.4697;0.0299;7660;2021-05-03 20:41:32:384
-2.5169;-9.4697;0.0299;7710;2021-05-03 20:41:32:434
-1.0349;-11.4712;-1.646;7760;2021-05-03 20:41:32:484
-1.0349;-11.4712;-1.646;7810;2021-05-03 20:41:32:534
0.9667;-11.3204;-3.389;7860;2021-05-03 20:41:32:584
0.9667;-11.3204;-3.389;7910;2021-05-03 20:41:32:634
0.7991;-13.5254;1.6891;7960;2021-05-03 20:41:32:684
0.7991;-13.5254;1.6891;8010;2021-05-03 20:41:32:734
2.3266;-8.5862;-2.5486;8060;2021-05-03 20:41:32:784
2.3266;-8.5862;-2.5486;8110;2021-05-03 20:41:32:834
0.9475;-7.3628;-0.0539;8160;2021-05-03 20:41:32:884
0.9475;-7.3628;-0.0539;8210;2021-05-03 20:41:32:934
-0.501;-7.3819;-5.3762;8260;2021-05-03 20:41:32:984
-0.501;-7.3819;-5.3762;8310;2021-05-03 20:41:33:034
-4.0229;-12.2637;-5.1176;8360;2021-05-03 20:41:33:084
-4.0229;-12.2637;-5.1176;8410;2021-05-03 20:41:33:134
0.8589;-11.4497;1.9597;8460;2021-05-03 20:41:33:184
0.8589;-11.4497;1.9597;8510;2021-05-03 20:41:33:234
-0.3885;-10.6907;1.6915;8560;2021-05-03 20:41:33:284
-0.3885;-10.6907;1.6915;8610;2021-05-03 20:41:33:334
-0.8841;-8.4833;0.1257;8660;2021-05-03 20:41:33:384
-0.8841;-8.4833;0.1257;8710;2021-05-03 20:41:33:434
0.4878;-10.1616;-0.2646;8759;2021-05-03 20:41:33:483
0.4878;-10.1616;-0.2646;8810;2021-05-03 20:41:33:534
1.2324;-9.4146;-1.998;8860;2021-05-03 20:41:33:584
1.2324;-9.4146;-1.998;8910;2021-05-03 20:41:33:634
-4.0253;-12.3403;-2.8048;8960;2021-05-03 20:41:33:684
-4.0253;-12.3403;-2.8048;9010;2021-05-03 20:41:33:734
0.0353;-12.1057;1.4162;9060;2021-05-03 20:41:33:784
0.0353;-12.1057;1.4162;9110;2021-05-03 20:41:33:834
2.4104;-11.0451;1.895;9160;2021-05-03 20:41:33:884
2.4104;-11.0451;1.895;9210;2021-05-03 20:41:33:934
1.333;-5.2319;0.1472;9260;2021-05-03 20:41:33:984
1.333;-5.2319;0.1472;9310;2021-05-03 20:41:34:034
0.258;-6.9988;-1.9118;9360;2021-05-03 20:41:34:084
0.258;-6.9988;-1.9118;9410;2021-05-03 20:41:34:134
-3.2783;-12.2685;-5.7856;9460;2021-05-03 20:41:34:184
-3.2783;-12.2685;-5.7856;9510;2021-05-03 20:41:34:234
3.8445;-14.4257;-0.2813;9560;2021-05-03 20:41:34:284
3.8445;-14.4257;-0.2813;9610;2021-05-03 20:41:34:334
0.3106;-10.3723;1.6652;9660;2021-05-03 20:41:34:384
0.3106;-10.3723;1.6652;9710;2021-05-03 20:41:34:434
-1.4419;-9.3404;0.583;9760;2021-05-03 20:41:34:484
-1.4419;-9.3404;0.583;9810;2021-05-03 20:41:34:534
-1.2863;-9.6827;-0.0251;9860;2021-05-03 20:41:34:584
-1.2863;-9.6827;-0.0251;9910;2021-05-03 20:41:34:634
1.0552;-9.1991;-4.3586;9960;2021-05-03 20:41:34:684
1.0552;-9.1991;-4.3586;10010;2021-05-03 20:41:34:734
-1.1618;-10.2191;0.3579;10060;2021-05-03 20:41:34:784
-1.1618;-10.2191;0.3579;10110;2021-05-03 20:41:34:834
-2.3302;-12.8742;-7.4376;10160;2021-05-03 20:41:34:884
-2.3302;-12.8742;-7.4376;10210;2021-05-03 20:41:34:934
0.6147;-13.7146;1.4401;10260;2021-05-03 20:41:34:984
0.6147;-13.7146;1.4401;10310;2021-05-03 20:41:35:034
2.0752;-8.6413;1.227;10359;2021-05-03 20:41:35:083
2.0752;-8.6413;1.227;10410;2021-05-03 20:41:35:134
-0.2879;-6.7714;-1.7849;10460;2021-05-03 20:41:35:184
-0.2879;-6.7714;-1.7849;10510;2021-05-03 20:41:35:234
2.0752;-7.1018;-6.6068;10560;2021-05-03 20:41:35:284
2.0752;-7.1018;-6.6068;10610;2021-05-03 20:41:35:334
-4.2096;-12.7018;-4.9692;10660;2021-05-03 20:41:35:384
-4.2096;-12.7018;-4.9692;10710;2021-05-03 20:41:35:434
1.2707;-9.5678;1.8423;10760;2021-05-03 20:41:35:484
1.2707;-9.5678;1.8423;10810;2021-05-03 20:41:35:534
0.7105;-11.9788;1.4114;10860;2021-05-03 20:41:35:584
0.7105;-11.9788;1.4114;10910;2021-05-03 20:41:35:634
-0.4747;-8.3947;0.31;10960;2021-05-03 20:41:35:684
-0.4747;-8.3947;0.31;11010;2021-05-03 20:41:35:734
-0.5082;-8.9956;0.0802;11060;2021-05-03 20:41:35:784
-0.5082;-8.9956;0.0802;11110;2021-05-03 20:41:35:834
0.155;-11.6101;-0.3508;11160;2021-05-03 20:41:35:884
0.155;-11.6101;-0.3508;11210;2021-05-03 20:41:35:934
-1.6239;-12.1488;0.2861;11260;2021-05-03 20:41:35:984
-1.6239;-12.1488;0.2861;11310;2021-05-03 20:41:36:034
-1.9543;-12.1081;1.318;11360;2021-05-03 20:41:36:084
-1.9543;-12.1081;1.318;11410;2021-05-03 20:41:36:134
1.1343;-11.1648;1.33;11460;2021-05-03 20:41:36:184
1.1343;-11.1648;1.33;11510;2021-05-03 20:41:36:234
1.3306;-6.1609;1.1504;11560;2021-05-03 20:41:36:284
1.3306;-6.1609;1.1504;11610;2021-05-03 20:41:36:334
1.0481;-7.109;-0.2023;11660;2021-05-03 20:41:36:384
1.0481;-7.109;-0.2023;11710;2021-05-03 20:41:36:434
-2.4044;-10.0874;-5.5246;11760;2021-05-03 20:41:36:484
-2.4044;-10.0874;-5.5246;11810;2021-05-03 20:41:36:534
0.5213;-9.599;2.6444;11860;2021-05-03 20:41:36:584
0.5213;-9.599;2.6444;11910;2021-05-03 20:41:36:634
1.321;-11.4329;1.1504;11960;2021-05-03 20:41:36:684
1.321;-11.4329;1.1504;12009;2021-05-03 20:41:36:733
0.5932;-9.1871;0.346;12060;2021-05-03 20:41:36:784
0.5932;-9.1871;0.346;12110;2021-05-03 20:41:36:834
-0.2616;-9.6923;0.0754;12160;2021-05-03 20:41:36:884
-0.2616;-9.6923;0.0754;12210;2021-05-03 20:41:36:934
-2.6103;-10.6572;-5.7425;12260;2021-05-03 20:41:36:984
-2.6103;-10.6572;-5.7425;12310;2021-05-03 20:41:37:034
-1.9758;-11.0139;1.2629;12359;2021-05-03 20:41:37:083
-1.9758;-11.0139;1.2629;12410;2021-05-03 20:41:37:134
-0.1227;-9.8695;-0.4729;12460;2021-05-03 20:41:37:184
-0.1227;-9.8695;-0.4729;12510;2021-05-03 20:41:37:234
5.4773;-13.9971;-0.8894;12559;2021-05-03 20:41:37:283
5.4773;-13.9971;-0.8894;12610;2021-05-03 20:41:37:334
4.9123;-5.6198;-0.3747;12659;2021-05-03 20:41:37:383
4.9123;-5.6198;-0.3747;12710;2021-05-03 20:41:37:434
-0.8481;-10.5064;-3.3435;12760;2021-05-03 20:41:37:484
-0.8481;-10.5064;-3.3435;12810;2021-05-03 20:41:37:534
-0.0748;-8.3252;-3.2453;12860;2021-05-03 20:41:37:584
-0.0748;-8.3252;-3.2453;12910;2021-05-03 20:41:37:634
2.0536;-8.5742;-7.1263;12960;2021-05-03 20:41:37:684
2.0536;-8.5742;-7.1263;13010;2021-05-03 20:41:37:734
0.5333;-8.3755;-1.749;13060;2021-05-03 20:41:37:784
0.5333;-8.3755;-1.749;13110;2021-05-03 20:41:37:834
1.6466;-10.0084;1.4952;13160;2021-05-03 20:41:37:884
1.6466;-10.0084;1.4952;13210;2021-05-03 20:41:37:934
0.1622;-10.31;2.1129;13259;2021-05-03 20:41:37:983
0.1622;-10.31;2.1129;13310;2021-05-03 20:41:38:034
-1.6071;-9.5918;0.753;13360;2021-05-03 20:41:38:084
-1.6071;-9.5918;0.753;13410;2021-05-03 20:41:38:134
-2.0141;-10.5782;0.0994;13460;2021-05-03 20:41:38:184
-2.0141;-10.5782;0.0994;13510;2021-05-03 20:41:38:234
-1.4515;-9.9222;-1.0738;13560;2021-05-03 20:41:38:284
-1.4515;-9.9222;-1.0738;13610;2021-05-03 20:41:38:334
-0.7548;-11.3922;-0.4322;13660;2021-05-03 20:41:38:384
-0.7548;-11.3922;-0.4322;13710;2021-05-03 20:41:38:434
0.2388;-9.6373;-0.3986;13760;2021-05-03 20:41:38:484
0.2388;-9.6373;-0.3986;13810;2021-05-03 20:41:38:534
2.8389;-14.1216;1.2558;13860;2021-05-03 20:41:38:584
2.8389;-14.1216;1.2558;13910;2021-05-03 20:41:38:634
1.9267;-5.8808;-0.7649;13960;2021-05-03 20:41:38:684
1.9267;-5.8808;-0.7649;14010;2021-05-03 20:41:38:734
0.3849;-6.0914;-1.3587;14060;2021-05-03 20:41:38:784
0.3849;-6.0914;-1.3587;14111;2021-05-03 20:41:38:835
-2.8593;-12.3188;-9.6546;14160;2021-05-03 20:41:38:884
-2.8593;-12.3188;-9.6546;14211;2021-05-03 20:41:38:935
2.906;-6.1872;-2.4289;14260;2021-05-03 20:41:38:984
2.906;-6.1872;-2.4289;14310;2021-05-03 20:41:39:034
1.3713;-9.4697;1.1983;14360;2021-05-03 20:41:39:084
1.3713;-9.4697;1.1983;14411;2021-05-03 20:41:39:135
-0.8721;-10.9708;1.4066;14460;2021-05-03 20:41:39:184
-0.8721;-10.9708;1.4066;14510;2021-05-03 20:41:39:234
-1.552;-9.994;-0.0443;14560;2021-05-03 20:41:39:284
-1.552;-9.994;-0.0443;14610;2021-05-03 20:41:39:334
-0.0461;-8.7466;-0.6931;14660;2021-05-03 20:41:39:384
-0.0461;-8.7466;-0.6931;14710;2021-05-03 20:41:39:434
1.1797;-11.2533;-2.6707;14760;2021-05-03 20:41:39:484
1.1797;-11.2533;-2.6707;14810;2021-05-03 20:41:39:534
-1.5113;-11.9094;-2.2589;14861;2021-05-03 20:41:39:585
-1.5113;-11.9094;-2.2589;14910;2021-05-03 20:41:39:634
0.7608;-13.061;1.2151;14960;2021-05-03 20:41:39:684
0.7608;-13.061;1.2151;15010;2021-05-03 20:41:39:734
1.163;-7.7339;1.0499;15060;2021-05-03 20:41:39:784
1.163;-7.7339;1.0499;15110;2021-05-03 20:41:39:834
-0.9295;-7.7746;0.0227;15160;2021-05-03 20:41:39:884
-0.9295;-7.7746;0.0227;15210;2021-05-03 20:41:39:934
2.6785;-8.5742;-6.5302;15260;2021-05-03 20:41:39:984
2.6785;-8.5742;-6.5302;15310;2021-05-03 20:41:40:034
-3.9965;-9.2398;-2.8718;15360;2021-05-03 20:41:40:084
-3.9965;-9.2398;-2.8718;15410;2021-05-03 20:41:40:134
1.5149;-7.4585;0.8799;15460;2021-05-03 20:41:40:184
1.5149;-7.4585;0.8799;15510;2021-05-03 20:41:40:234
0.8948;-10.2765;1.3659;15560;2021-05-03 20:41:40:284
0.8948;-10.2765;1.3659;15610;2021-05-03 20:41:40:334
-0.6446;-9.8958;0.1544;15660;2021-05-03 20:41:40:384
-0.6446;-9.8958;0.1544;15710;2021-05-03 20:41:40:434
-0.2161;-8.7801;-0.1233;15760;2021-05-03 20:41:40:484
-0.2161;-8.7801;-0.1233;15810;2021-05-03 20:41:40:534
2.5588;-9.2087;-7.4256;15860;2021-05-03 20:41:40:584
2.5588;-9.2087;-7.4256;15910;2021-05-03 20:41:40:634
-2.1266;-11.4209;-0.3651;15960;2021-05-03 20:41:40:684
-2.1266;-11.4209;-0.3651;16010;2021-05-03 20:41:40:734
-2.1266;-11.4209;-0.3651;16060;2021-05-03 20:41:40:784
-1.3821;-12.3188;2.2757;16110;2021-05-03 20:41:40:834
-1.3821;-12.3188;2.2757;16160;2021-05-03 20:41:40:884
0.823;-10.3627;2.3762;16210;2021-05-03 20:41:40:934
0.823;-10.3627;2.3762;16260;2021-05-03 20:41:40:984
-0.5177;-7.6644;-1.6532;16310;2021-05-03 20:41:41:034
-0.5177;-7.6644;-1.6532;16361;2021-05-03 20:41:41:085
0.9619;-7.7099;0.1856;16410;2021-05-03 20:41:41:134
0.9619;-7.7099;0.1856;16460;2021-05-03 20:41:41:184
-1.0253;-11.0977;-5.6802;16510;2021-05-03 20:41:41:234
-1.0253;-11.0977;-5.6802;16560;2021-05-03 20:41:41:284
0.6219;-12.8599;2.1296;16610;2021-05-03 20:41:41:334
0.6219;-12.8599;2.1296;16660;2021-05-03 20:41:41:384
1.0002;-8.0164;0.3627;16710;2021-05-03 20:41:41:434
1.0002;-8.0164;0.3627;16760;2021-05-03 20:41:41:484
-0.5465;-9.3284;0.4561;16810;2021-05-03 20:41:41:534
-0.5465;-9.3284;0.4561;16860;2021-05-03 20:41:41:584
-0.4986;-8.9645;0.2047;16910;2021-05-03 20:41:41:634
-0.4986;-8.9645;0.2047;16960;2021-05-03 20:41:41:684
0.2484;-11.081;0.1472;17010;2021-05-03 20:41:41:734
0.2484;-11.081;0.1472;17060;2021-05-03 20:41:41:784
-3.0173;-12.7473;-4.938;17110;2021-05-03 20:41:41:834
-3.0173;-12.7473;-4.938;17160;2021-05-03 20:41:41:884
0.0617;-9.2709;-1.998;17210;2021-05-03 20:41:41:934
0.0617;-9.2709;-1.998;17259;2021-05-03 20:41:41:983
3.5021;-14.8207;2.6157;17310;2021-05-03 20:41:42:034
3.5021;-14.8207;2.6157;17360;2021-05-03 20:41:42:084
1.819;-6.0914;-0.2143;17410;2021-05-03 20:41:42:134
1.819;-6.0914;-0.2143;17460;2021-05-03 20:41:42:184
0.4591;-6.362;0.9421;17510;2021-05-03 20:41:42:234
0.4591;-6.362;0.9421;17560;2021-05-03 20:41:42:284
-3.3836;-11.7968;-9.906;17612;2021-05-03 20:41:42:336
-3.3836;-11.7968;-9.906;17660;2021-05-03 20:41:42:384
0.8422;-10.7123;-1.5862;17710;2021-05-03 20:41:42:434
0.8422;-10.7123;-1.5862;17760;2021-05-03 20:41:42:484
1.8693;-8.0451;0.9278;17810;2021-05-03 20:41:42:534
1.8693;-8.0451;0.9278;17861;2021-05-03 20:41:42:585
0.7512;-8.3276;0.7913;17911;2021-05-03 20:41:42:635
0.7512;-8.3276;0.7913;17960;2021-05-03 20:41:42:684
-0.8122;-9.7737;0.3843;18010;2021-05-03 20:41:42:734
-0.8122;-9.7737;0.3843;18061;2021-05-03 20:41:42:785
-2.39;-10.0108;0.1161;18110;2021-05-03 20:41:42:834
-2.39;-10.0108;0.1161;18160;2021-05-03 20:41:42:884
-1.9662;-10.1233;-2.721;18210;2021-05-03 20:41:42:934
-1.9662;-10.1233;-2.721;18260;2021-05-03 20:41:42:984
0.5429;-12.1895;-3.6859;18310;2021-05-03 20:41:43:034
0.5429;-12.1895;-3.6859;18360;2021-05-03 20:41:43:084
1.9028;-14.7465;1.1791;18410;2021-05-03 20:41:43:134
1.9028;-14.7465;1.1791;18460;2021-05-03 20:41:43:184
2.6929;-6.4027;-0.2526;18510;2021-05-03 20:41:43:234
2.6929;-6.4027;-0.2526;18560;2021-05-03 20:41:43:284
0.926;-5.8903;-0.3053;18610;2021-05-03 20:41:43:334
0.926;-5.8903;-0.3053;18660;2021-05-03 20:41:43:384
-2.2655;-10.5878;-8.8645;18710;2021-05-03 20:41:43:434
-2.2655;-10.5878;-8.8645;18761;2021-05-03 20:41:43:485
-0.9367;-9.5559;-4.6148;18810;2021-05-03 20:41:43:534
-0.9367;-9.5559;-4.6148;18861;2021-05-03 20:41:43:585
0.3873;-10.6548;0.808;18910;2021-05-03 20:41:43:634
0.3873;-10.6548;0.808;18960;2021-05-03 20:41:43:684
2.5205;-11.1312;2.1919;19010;2021-05-03 20:41:43:734
2.5205;-11.1312;2.1919;19060;2021-05-03 20:41:43:784
-0.4196;-8.8304;0.6333;19110;2021-05-03 20:41:43:834
-0.4196;-8.8304;0.6333;19160;2021-05-03 20:41:43:884
-1.7675;-10.5854;0.4944;19210;2021-05-03 20:41:43:934
-1.7675;-10.5854;0.4944;19260;2021-05-03 20:41:43:984
-3.0604;-10.3819;0.1879;19310;2021-05-03 20:41:44:034
-3.0604;-10.3819;0.1879;19360;2021-05-03 20:41:44:084
-0.7763;-11.5287;-3.1376;19410;2021-05-03 20:41:44:134
-0.7763;-11.5287;-3.1376;19460;2021-05-03 20:41:44:184
1.6155;-9.5487;-1.7705;19510;2021-05-03 20:41:44:234
1.6155;-9.5487;-1.7705;19560;2021-05-03 20:41:44:284
1.8669;-14.6076;1.5742;19610;2021-05-03 20:41:44:334
1.8669;-14.6076;1.5742;19660;2021-05-03 20:41:44:384
3.945;-6.5966;-2.4983;19711;2021-05-03 20:41:44:435
3.945;-6.5966;-2.4983;19760;2021-05-03 20:41:44:484
-0.3573;-6.0986;0.1544;19810;2021-05-03 20:41:44:534
-0.3573;-6.0986;0.1544;19860;2021-05-03 20:41:44:584
-2.1003;-9.666;-8.1223;19910;2021-05-03 20:41:44:634
-2.1003;-9.666;-8.1223;19960;2021-05-03 20:41:44:684
0.7823;-8.2893;-1.8591;20009;2021-05-03 20:41:44:733
0.7823;-8.2893;-1.8591;20060;2021-05-03 20:41:44:784
1.9196;-10.3627;0.6428;20110;2021-05-03 20:41:44:834
1.9196;-10.3627;0.6428;20160;2021-05-03 20:41:44:884
0.1598;-11.0211;1.0618;20210;2021-05-03 20:41:44:934
0.1598;-11.0211;1.0618;20260;2021-05-03 20:41:44:984
-1.3557;-9.1824;0.1808;20310;2021-05-03 20:41:45:034
-1.3342;-9.3715;-0.6261;20360;2021-05-03 20:41:45:084
-1.3342;-9.3715;-0.6261;20410;2021-05-03 20:41:45:134
1.0552;-9.5606;-7.5286;20460;2021-05-03 20:41:45:184
1.0552;-9.5606;-7.5286;20510;2021-05-03 20:41:45:234
-1.066;-11.251;0.3986;20560;2021-05-03 20:41:45:284
-1.066;-11.251;0.3986;20610;2021-05-03 20:41:45:334
-1.4922;-12.0003;-2.5079;20660;2021-05-03 20:41:45:384
-1.4922;-12.0003;-2.5079;20710;2021-05-03 20:41:45:434
0.8996;-14.8614;1.0977;20760;2021-05-03 20:41:45:484
0.8996;-14.8614;1.0977;20810;2021-05-03 20:41:45:534
1.57;-5.5144;0.8248;20860;2021-05-03 20:41:45:584
1.57;-5.5144;0.8248;20910;2021-05-03 20:41:45:634
0.0329;-9.4314;-1.1983;20960;2021-05-03 20:41:45:684
0.0329;-9.4314;-1.1983;21010;2021-05-03 20:41:45:734
0.8565;-9.4122;-7.7177;21060;2021-05-03 20:41:45:784
0.8565;-9.4122;-7.7177;21110;2021-05-03 20:41:45:834
-4.0181;-9.3978;-3.899;21160;2021-05-03 20:41:45:884
-4.0181;-9.3978;-3.899;21210;2021-05-03 20:41:45:934
2.7551;-11.2438;1.1025;21260;2021-05-03 20:41:45:984
2.7551;-11.2438;1.1025;21310;2021-05-03 20:41:46:034
1.5413;-9.4601;1.0499;21360;2021-05-03 20:41:46:084
1.5413;-9.4601;1.0499;21410;2021-05-03 20:41:46:134
-0.8649;-9.4864;0.097;21460;2021-05-03 20:41:46:184
-0.8649;-9.4864;0.097;21510;2021-05-03 20:41:46:234
-0.671;-9.563;0.0922;21560;2021-05-03 20:41:46:284
-0.671;-9.563;0.0922;21610;2021-05-03 20:41:46:334
0.598;-10.9421;-0.6788;21660;2021-05-03 20:41:46:384
0.598;-10.9421;-0.6788;21709;2021-05-03 20:41:46:433
-1.5042;-14.0091;-0.5854;21760;2021-05-03 20:41:46:484
-1.5042;-14.0091;-0.5854;21810;2021-05-03 20:41:46:534
-0.4914;-10.99;1.7298;21860;2021-05-03 20:41:46:584
-0.4914;-10.99;1.7298;21910;2021-05-03 20:41:46:634
-0.6614;-7.607;1.4736;21960;2021-05-03 20:41:46:684
-0.6614;-7.607;1.4736;22010;2021-05-03 20:41:46:734
0.5692;-7.3939;-0.3196;22060;2021-05-03 20:41:46:784
0.5692;-7.3939;-0.3196;22110;2021-05-03 20:41:46:834
1.3785;-8.0523;-1.7561;22160;2021-05-03 20:41:46:884
1.3785;-8.0523;-1.7561;22210;2021-05-03 20:41:46:934
-5.1122;-15.2062;-10.2963;22260;2021-05-03 20:41:46:984
-5.1122;-15.2062;-10.2963;22310;2021-05-03 20:41:47:034
4.1653;-12.6587;-3.4273;22360;2021-05-03 20:41:47:084
4.1653;-12.6587;-3.4273;22410;2021-05-03 20:41:47:134
0.8039;-10.7769;1.9477;22460;2021-05-03 20:41:47:184
0.8039;-10.7769;1.9477;22510;2021-05-03 20:41:47:234
-0.6351;-8.3659;0.3938;22560;2021-05-03 20:41:47:284
-0.6351;-8.3659;0.3938;22610;2021-05-03 20:41:47:334
-0.2209;-9.2709;0.0778;22660;2021-05-03 20:41:47:384
-0.2209;-9.2709;0.0778;22710;2021-05-03 20:41:47:434
0.5812;-11.9213;-7.4687;22760;2021-05-03 20:41:47:484
0.5812;-11.9213;-7.4687;22810;2021-05-03 20:41:47:534
-2.7587;-12.1727;0.5974;22860;2021-05-03 20:41:47:584
-2.7587;-12.1727;0.5974;22910;2021-05-03 20:41:47:634
-2.0093;-11.2486;0.2933;22960;2021-05-03 20:41:47:684
-2.0093;-11.2486;0.2933;23010;2021-05-03 20:41:47:734
1.1582;-13.7984;0.9876;23060;2021-05-03 20:41:47:784
1.1582;-13.7984;0.9876;23110;2021-05-03 20:41:47:834
1.6418;-5.7515;-1.5287;23160;2021-05-03 20:41:47:884
1.6418;-5.7515;-1.5287;23210;2021-05-03 20:41:47:934
1.4311;-6.8265;1.0882;23260;2021-05-03 20:41:47:984
1.4311;-6.8265;1.0882;23310;2021-05-03 20:41:48:034
-3.3597;-12.6372;-8.4192;23360;2021-05-03 20:41:48:084
-3.3597;-12.6372;-8.4192;23410;2021-05-03 20:41:48:134
1.5269;-14.0163;-1.6173;23460;2021-05-03 20:41:48:184
1.5269;-14.0163;-1.6173;23510;2021-05-03 20:41:48:234
1.0098;-9.994;1.4138;23560;2021-05-03 20:41:48:284
1.0098;-9.994;1.4138;23610;2021-05-03 20:41:48:334
-0.3358;-8.9501;0.4465;23660;2021-05-03 20:41:48:384
-0.3358;-8.9501;0.4465;23710;2021-05-03 20:41:48:434
-0.5321;-10.5279;-0.1209;23760;2021-05-03 20:41:48:484
-0.5321;-10.5279;-0.1209;23810;2021-05-03 20:41:48:534
1.4383;-10.3699;-8.3665;23860;2021-05-03 20:41:48:584
1.4383;-10.3699;-8.3665;23910;2021-05-03 20:41:48:634
-2.1051;-11.7082;0.6692;23960;2021-05-03 20:41:48:684
-2.1051;-11.7082;0.6692;24010;2021-05-03 20:41:48:734
1.4982;-10.3819;-4.0139;24060;2021-05-03 20:41:48:784
1.4982;-10.3819;-4.0139;24110;2021-05-03 20:41:48:834
3.1597;-11.737;0.8583;24160;2021-05-03 20:41:48:884
3.1597;-11.737;0.8583;24210;2021-05-03 20:41:48:934
2.7934;-6.1441;-0.6572;24260;2021-05-03 20:41:48:984
2.7934;-6.1441;-0.6572;24310;2021-05-03 20:41:49:034
-0.4866;-7.5328;-2.6612;24360;2021-05-03 20:41:49:084
-0.4866;-7.5328;-2.6612;24410;2021-05-03 20:41:49:134
-1.8178;-10.4034;-3.9325;24460;2021-05-03 20:41:49:184
-1.8178;-10.4034;-3.9325;24510;2021-05-03 20:41:49:234
-3.058;-12.29;-1.9166;24560;2021-05-03 20:41:49:284
-3.058;-12.29;-1.9166;24610;2021-05-03 20:41:49:334
2.8413;-9.0483;1.1121;24660;2021-05-03 20:41:49:384
2.8413;-9.0483;1.1121;24710;2021-05-03 20:41:49:434
1.2923;-9.3715;0.6788;24760;2021-05-03 20:41:49:484
1.2923;-9.3715;0.6788;24810;2021-05-03 20:41:49:534
-0.3932;-10.65;0.6835;24860;2021-05-03 20:41:49:584
-0.3932;-10.65;0.6835;24910;2021-05-03 20:41:49:634
-1.6622;-9.915;0.6476;24959;2021-05-03 20:41:49:683
-1.6622;-9.915;0.6476;25010;2021-05-03 20:41:49:734
-1.1522;-8.7801;0.2765;25060;2021-05-03 20:41:49:784
-1.1522;-8.7801;0.2765;25110;2021-05-03 20:41:49:834
-1.2504;-11.3132;0.1688;25160;2021-05-03 20:41:49:884
-1.2504;-11.3132;0.1688;25210;2021-05-03 20:41:49:934
3.0736;-10.5064;2.8383;25261;2021-05-03 20:41:49:985
3.0736;-10.5064;2.8383;25310;2021-05-03 20:41:50:034
2.0991;-11.4257;0.8727;25360;2021-05-03 20:41:50:084
2.0991;-11.4257;0.8727;25410;2021-05-03 20:41:50:134
2.1087;-6.0531;0.3484;25460;2021-05-03 20:41:50:184
2.1087;-6.0531;0.3484;25509;2021-05-03 20:41:50:233
0.1215;-6.5775;-2.4792;25560;2021-05-03 20:41:50:284
0.1215;-6.5775;-2.4792;25610;2021-05-03 20:41:50:334
-5.5839;-13.9492;-9.7719;25660;2021-05-03 20:41:50:384
-5.5839;-13.9492;-9.7719;25711;2021-05-03 20:41:50:435
3.2914;-8.2774;-1.8399;25760;2021-05-03 20:41:50:484
3.2914;-8.2774;-1.8399;25810;2021-05-03 20:41:50:534
0.8398;-8.524;1.0499;25860;2021-05-03 20:41:50:584
0.8398;-8.524;1.0499;25910;2021-05-03 20:41:50:634
-0.7643;-11.0642;1.8783;25960;2021-05-03 20:41:50:684
-0.7643;-11.0642;1.8783;26010;2021-05-03 20:41:50:734
-1.6071;-9.7953;-0.3651;26060;2021-05-03 20:41:50:784
-1.6071;-9.7953;-0.3651;26110;2021-05-03 20:41:50:834
-0.6279;-8.2462;0.1041;26160;2021-05-03 20:41:50:884
-0.6279;-8.2462;0.1041;26210;2021-05-03 20:41:50:934
0.3418;-10.7577;-0.2071;26260;2021-05-03 20:41:50:984
0.3418;-10.7577;-0.2071;26310;2021-05-03 20:41:51:034
1.5532;-10.8846;-7.7297;26360;2021-05-03 20:41:51:084
1.5532;-10.8846;-7.7297;26410;2021-05-03 20:41:51:134
-1.2001;-10.322;1.2582;26460;2021-05-03 20:41:51:184
-1.2001;-10.322;1.2582;26510;2021-05-03 20:41:51:234
0.2699;-11.7825;1.1576;26560;2021-05-03 20:41:51:284
0.2699;-11.7825;1.1576;26610;2021-05-03 20:41:51:334
0.3226;-7.662;0.5902;26660;2021-05-03 20:41:51:384
0.3226;-7.662;0.5902;26710;2021-05-03 20:41:51:434
2.2643;-6.3452;-0.9589;26760;2021-05-03 20:41:51:484
2.2643;-6.3452;-0.9589;26810;2021-05-03 20:41:51:534
-4.5424;-12.1703;-6.1782;26859;2021-05-03 20:41:51:583
-4.5424;-12.1703;-6.1782;26910;2021-05-03 20:41:51:634
-0.3669;-12.0243;1.1911;26960;2021-05-03 20:41:51:684
-0.3669;-12.0243;1.1911;27010;2021-05-03 20:41:51:734
2.3242;-7.4466;0.7769;27059;2021-05-03 20:41:51:783
2.3242;-7.4466;0.7769;27110;2021-05-03 20:41:51:834
0.677;-9.0267;0.5638;27160;2021-05-03 20:41:51:884
0.677;-9.0267;0.5638;27210;2021-05-03 20:41:51:934
-0.9703;-10.5471;0.2382;27260;2021-05-03 20:41:51:984
-0.9703;-10.5471;0.2382;27310;2021-05-03 20:41:52:034
-0.7165;-9.3931;-1.9046;27360;2021-05-03 20:41:52:084
-0.7165;-9.3931;-1.9046;27410;2021-05-03 20:41:52:134
-0.2592;-10.7913;0.1185;27460;2021-05-03 20:41:52:184
-0.2592;-10.7913;0.1185;27510;2021-05-03 20:41:52:234
-1.2767;-12.1153;-2.3331;27560;2021-05-03 20:41:52:284
-1.2767;-12.1153;-2.3331;27610;2021-05-03 20:41:52:334
1.831;-13.6045;2.2805;27660;2021-05-03 20:41:52:384
1.831;-13.6045;2.2805;27710;2021-05-03 20:41:52:434
-0.3238;-7.5759;-2.0506;27760;2021-05-03 20:41:52:484
-0.3238;-7.5759;-2.0506;27810;2021-05-03 20:41:52:534
0.8541;-7.1353;1.8375;27860;2021-05-03 20:41:52:584
0.8541;-7.1353;1.8375;27910;2021-05-03 20:41:52:634
-0.2951;-8.6461;-4.9835;27960;2021-05-03 20:41:52:684
-0.2951;-8.6461;-4.9835;28010;2021-05-03 20:41:52:734
-5.548;-11.3587;-6.3482;28060;2021-05-03 20:41:52:784
-5.548;-11.3587;-6.3482;28110;2021-05-03 20:41:52:834
3.3824;-15.1056;-2.2517;28160;2021-05-03 20:41:52:884
3.3824;-15.1056;-2.2517;28210;2021-05-03 20:41:52:934
0.7488;-10.65;1.8447;28260;2021-05-03 20:41:52:984
0.7488;-10.65;1.8447;28310;2021-05-03 20:41:53:034
-0.7811;-8.6485;0.4944;28360;2021-05-03 20:41:53:084
-0.7811;-8.6485;0.4944;28410;2021-05-03 20:41:53:134
-0.9272;-9.5678;0.0491;28460;2021-05-03 20:41:53:184
-0.9272;-9.5678;0.0491;28510;2021-05-03 20:41:53:234
1.7352;-9.7833;-4.2748;28560;2021-05-03 20:41:53:284
1.7352;-9.7833;-4.2748;28610;2021-05-03 20:41:53:334
-1.2911;-11.1145;0.2358;28660;2021-05-03 20:41:53:384
-1.2911;-11.1145;0.2358;28710;2021-05-03 20:41:53:434
-1.5449;-10.8966;-5.3498;28760;2021-05-03 20:41:53:484
-1.5449;-10.8966;-5.3498;28810;2021-05-03 20:41:53:534
0.4495;-15.2062;1.4162;28860;2021-05-03 20:41:53:584
0.4495;-15.2062;1.4162;28910;2021-05-03 20:41:53:634
1.7352;-6.5655;0.6261;28960;2021-05-03 20:41:53:684
1.7352;-6.5655;0.6261;29010;2021-05-03 20:41:53:734
1.6873;-6.7929;1.2869;29060;2021-05-03 20:41:53:784
1.6873;-6.7929;1.2869;29110;2021-05-03 20:41:53:834
-0.3118;-11.2103;-13.447;29160;2021-05-03 20:41:53:884
-0.3118;-11.2103;-13.447;29210;2021-05-03 20:41:53:934
-2.3948;-7.9613;-3.0179;29260;2021-05-03 20:41:53:984
-2.3948;-7.9613;-3.0179;29310;2021-05-03 20:41:54:034
1.9076;-10.0754;1.2534;29360;2021-05-03 20:41:54:084
1.9076;-10.0754;1.2534;29410;2021-05-03 20:41:54:134
0.5094;-10.8224;0.9445;29460;2021-05-03 20:41:54:184
0.5094;-10.8224;0.9445;29510;2021-05-03 20:41:54:234
-0.7596;-8.8304;0.1951;29560;2021-05-03 20:41:54:284
-0.7596;-8.8304;0.1951;29610;2021-05-03 20:41:54:334
-0.9272;-9.2853;0.0084;29660;2021-05-03 20:41:54:384
-0.9272;-9.2853;0.0084;29710;2021-05-03 20:41:54:434
-0.4938;-11.2581;-3.8223;29760;2021-05-03 20:41:54:484
-0.4938;-11.2581;-3.8223;29810;2021-05-03 20:41:54:534
-2.991;-11.2869;0.3148;29860;2021-05-03 20:41:54:584
-2.991;-11.2869;0.3148;29909;2021-05-03 20:41:54:633
-0.2927;-13.1879;1.5598;29960;2021-05-03 20:41:54:684
-0.2927;-13.1879;1.5598;30010;2021-05-03 20:41:54:734
3.9187;-10.1041;-0.3244;30060;2021-05-03 20:41:54:784
3.9187;-10.1041;-0.3244;30110;2021-05-03 20:41:54:834
3.1741;-5.2415;-0.3699;30160;2021-05-03 20:41:54:884
3.1741;-5.2415;-0.3699;30210;2021-05-03 20:41:54:934
-2.0764;-8.4689;-9.0992;30260;2021-05-03 20:41:54:984
-2.0764;-8.4689;-9.0992;30310;2021-05-03 20:41:55:034
-2.4666;-10.3124;-6.9851;30360;2021-05-03 20:41:55:084
-2.4666;-10.3124;-6.9851;30410;2021-05-03 20:41:55:134
1.4551;-9.7426;-2.1344;30460;2021-05-03 20:41:55:184
1.4551;-9.7426;-2.1344;30510;2021-05-03 20:41:55:234
1.1223;-8.3612;1.9166;30560;2021-05-03 20:41:55:284
1.1223;-8.3612;1.9166;30610;2021-05-03 20:41:55:334
0.1335;-9.7187;1.2318;30660;2021-05-03 20:41:55:384
0.1335;-9.7187;1.2318;30710;2021-05-03 20:41:55:434
-0.7165;-9.5894;0.516;30760;2021-05-03 20:41:55:484
-0.7165;-9.5894;0.516;30810;2021-05-03 20:41:55:534
-1.6789;-10.255;0.1712;30861;2021-05-03 20:41:55:585
-1.6789;-10.255;0.1712;30911;2021-05-03 20:41:55:635
-2.3445;-9.9581;-0.2071;30960;2021-05-03 20:41:55:684
-2.3445;-9.9581;-0.2071;31010;2021-05-03 20:41:55:734
0.1742;-12.0267;-4.2294;31061;2021-05-03 20:41:55:785
0.1742;-12.0267;-4.2294;31110;2021-05-03 20:41:55:834
1.2061;-9.8791;2.1991;31160;2021-05-03 20:41:55:884
1.2061;-9.8791;2.1991;31210;2021-05-03 20:41:55:934
3.3202;-13.3124;0.9517;31260;2021-05-03 20:41:55:984
3.3202;-13.3124;0.9517;31310;2021-05-03 20:41:56:034
3.2459;-5.8425;-1.6508;31360;2021-05-03 20:41:56:084
3.2459;-5.8425;-1.6508;31410;2021-05-03 20:41:56:134
-0.5441;-6.1106;-1.3084;31460;2021-05-03 20:41:56:184
-0.5441;-6.1106;-1.3084;31510;2021-05-03 20:41:56:234
-1.1642;-10.4417;-10.4686;31559;2021-05-03 20:41:56:283
-1.1642;-10.4417;-10.4686;31610;2021-05-03 20:41:56:334
2.2691;-6.9773;-2.3427;31660;2021-05-03 20:41:56:384
2.2691;-6.9773;-2.3427;31710;2021-05-03 20:41:56:434
1.7544;-9.6588;1.0211;31760;2021-05-03 20:41:56:484
1.7544;-9.6588;1.0211;31810;2021-05-03 20:41:56:534
-0.9415;-10.48;2.3691;31860;2021-05-03 20:41:56:584
-0.9415;-10.48;2.3691;31910;2021-05-03 20:41:56:634
-1.8202;-9.8671;0.2598;31960;2021-05-03 20:41:56:684
-1.8202;-9.8671;0.2598;32010;2021-05-03 20:41:56:734
-1.4275;-9.4194;-0.5471;32060;2021-05-03 20:41:56:784
-1.4275;-9.4194;-0.5471;32110;2021-05-03 20:41:56:834
0.4711;-10.7099;-0.6716;32160;2021-05-03 20:41:56:884
0.4711;-10.7099;-0.6716;32210;2021-05-03 20:41:56:934
-0.3525;-12.5773;-2.6133;32260;2021-05-03 20:41:56:984
-0.3525;-12.5773;-2.6133;32310;2021-05-03 20:41:57:034
-0.0868;-11.8639;1.2653;32360;2021-05-03 20:41:57:084
-0.0868;-11.8639;1.2653;32410;2021-05-03 20:41:57:134
1.0433;-9.7689;1.2342;32460;2021-05-03 20:41:57:184
1.0433;-9.7689;1.2342;32510;2021-05-03 20:41:57:234
-1.0469;-7.3005;0.3843;32559;2021-05-03 20:41:57:283
-1.0469;-7.3005;0.3843;32610;2021-05-03 20:41:57:334
2.0345;-7.3197;-0.9708;32660;2021-05-03 20:41:57:384
2.0345;-7.3197;-0.9708;32710;2021-05-03 20:41:57:434
-4.3126;-12.077;-3.4895;32760;2021-05-03 20:41:57:484
-4.3126;-12.077;-3.4895;32810;2021-05-03 20:41:57:534
1.6251;-14.4065;1.7514;32860;2021-05-03 20:41:57:584
1.6251;-14.4065;1.7514;32909;2021-05-03 20:41:57:633
1.6322;-10.2765;1.6747;32960;2021-05-03 20:41:57:684
1.6322;-10.2765;1.6747;33009;2021-05-03 20:41:57:733
-0.2855;-8.8424;0.3364;33060;2021-05-03 20:41:57:784
-0.2855;-8.8424;0.3364;33109;2021-05-03 20:41:57:833
-0.4268;-9.6157;-0.1664;33160;2021-05-03 20:41:57:884
-0.4268;-9.6157;-0.1664;33210;2021-05-03 20:41:57:934
-0.1826;-9.6205;-0.6381;33260;2021-05-03 20:41:57:984
-0.1826;-9.6205;-0.6381;33310;2021-05-03 20:41:58:034
-2.0668;-12.0698;-0.6213;33360;2021-05-03 20:41:58:084
-2.0668;-12.0698;-0.6213;33410;2021-05-03 20:41:58:134
-1.734;-14.0378;1.8974;33460;2021-05-03 20:41:58:184
-1.734;-14.0378;1.8974;33510;2021-05-03 20:41:58:234
1.4766;-11.0115;2.1608;33560;2021-05-03 20:41:58:284
1.4766;-11.0115;2.1608;33610;2021-05-03 20:41:58:334
0.4064;-7.0156;-0.0132;33659;2021-05-03 20:41:58:383
0.4064;-7.0156;-0.0132;33710;2021-05-03 20:41:58:434
0.9068;-7.0515;-0.7793;33760;2021-05-03 20:41:58:484
0.9068;-7.0515;-0.7793;33810;2021-05-03 20:41:58:534
-1.1043;-10.3244;-4.4137;33860;2021-05-03 20:41:58:584
-1.1043;-10.3244;-4.4137;33910;2021-05-03 20:41:58:634
-1.5664;-8.0092;-0.1018;33960;2021-05-03 20:41:58:684
-1.5664;-8.0092;-0.1018;34010;2021-05-03 20:41:58:734
0.9355;-7.2143;1.5143;34060;2021-05-03 20:41:58:784
0.9355;-7.2143;1.5143;34110;2021-05-03 20:41:58:834
0.1215;-9.3619;0.911;34160;2021-05-03 20:41:58:884
0.1215;-9.3619;0.911;34209;2021-05-03 20:41:58:933
-0.2855;-9.1273;0.2023;34260;2021-05-03 20:41:58:984
-0.2855;-9.1273;0.2023;34310;2021-05-03 20:41:59:034
-0.2855;-9.1273;0.2023;34360;2021-05-03 20:41:59:084
0.562;-10.1065;0.334;34410;2021-05-03 20:41:59:134
0.562;-10.1065;0.334;34460;2021-05-03 20:41:59:184
-1.2599;-10.4968;-0.7362;34510;2021-05-03 20:41:59:234
-1.2599;-10.4968;-0.7362;34560;2021-05-03 20:41:59:284
-1.2743;-11.1265;-1.7083;34610;2021-05-03 20:41:59:334
-1.2743;-11.1265;-1.7083;34660;2021-05-03 20:41:59:384
1.7759;-16.3913;1.0738;34710;2021-05-03 20:41:59:434
1.7759;-16.3913;1.0738;34760;2021-05-03 20:41:59:484
2.0464;-5.5408;0.1808;34810;2021-05-03 20:41:59:534
2.0464;-5.5408;0.1808;34860;2021-05-03 20:41:59:584
1.5556;-5.864;1.4186;34909;2021-05-03 20:41:59:633
1.5556;-5.864;1.4186;34960;2021-05-03 20:41:59:684
-3.8457;-12.4385;-12.6474;35010;2021-05-03 20:41:59:734
-3.8457;-12.4385;-12.6474;35060;2021-05-03 20:41:59:784
1.9315;-9.2302;-2.9269;35110;2021-05-03 20:41:59:834
1.9315;-9.2302;-2.9269;35160;2021-05-03 20:41:59:884
1.2971;-8.4641;1.5;35210;2021-05-03 20:41:59:934
1.2971;-8.4641;1.5;35260;2021-05-03 20:41:59:984
-0.8553;-9.4912;0.9589;35311;2021-05-03 20:42:00:035
-0.8553;-9.4912;0.9589;35360;2021-05-03 20:42:00:084
-1.2121;-8.7706;0.0419;35410;2021-05-03 20:42:00:134
-1.2121;-8.7706;0.0419;35460;2021-05-03 20:42:00:184
0.1335;-10.6237;-0.6859;35510;2021-05-03 20:42:00:234
0.1335;-10.6237;-0.6859;35560;2021-05-03 20:42:00:284
-1.2983;-9.3356;0.176;35610;2021-05-03 20:42:00:334
-1.2983;-9.3356;0.176;35660;2021-05-03 20:42:00:384
-2.3206;-11.6628;-1.2629;35710;2021-05-03 20:42:00:434
-2.3206;-11.6628;-1.2629;35760;2021-05-03 20:42:00:484
2.408;-17.4926;1.5933;35810;2021-05-03 20:42:00:534
2.408;-17.4926;1.5933;35860;2021-05-03 20:42:00:584
3.0975;-5.9765;-0.0467;35910;2021-05-03 20:42:00:634
3.0975;-5.9765;-0.0467;35960;2021-05-03 20:42:00:684
3.0472;-6.3021;-0.8033;36010;2021-05-03 20:42:00:734
3.0472;-6.3021;-0.8033;36060;2021-05-03 20:42:00:784
-0.9104;-8.4928;-4.1551;36110;2021-05-03 20:42:00:834
-0.9104;-8.4928;-4.1551;36160;2021-05-03 20:42:00:884
-1.9112;-11.2198;-3.0347;36210;2021-05-03 20:42:00:934
-1.9112;-11.2198;-3.0347;36260;2021-05-03 20:42:00:984
0.2484;-12.0746;1.7083;36310;2021-05-03 20:42:01:034
0.2484;-12.0746;1.7083;36360;2021-05-03 20:42:01:084
1.5006;-6.5296;0.8966;36410;2021-05-03 20:42:01:134
1.5006;-6.5296;0.8966;36460;2021-05-03 20:42:01:184
0.6746;-12.4744;0.6859;36510;2021-05-03 20:42:01:234
0.6746;-12.4744;0.6859;36560;2021-05-03 20:42:01:284
-1.8154;-11.5167;1.3515;36610;2021-05-03 20:42:01:334
-1.8154;-11.5167;1.3515;36660;2021-05-03 20:42:01:384
-2.0069;-8.5934;0.4322;36709;2021-05-03 20:42:01:433
-2.0069;-8.5934;0.4322;36760;2021-05-03 20:42:01:484
-1.8872;-10.231;0.3412;36810;2021-05-03 20:42:01:534
-1.8872;-10.231;0.3412;36860;2021-05-03 20:42:01:584
2.3601;-15.1607;-25.5593;36910;2021-05-03 20:42:01:634
2.3601;-15.1607;-25.5593;36960;2021-05-03 20:42:01:684
0.1718;-12.405;2.1033;37010;2021-05-03 20:42:01:734
0.1718;-12.405;2.1033;37060;2021-05-03 20:42:01:784
3.2771;-11.0283;-0.4178;37110;2021-05-03 20:42:01:834
3.2771;-11.0283;-0.4178;37160;2021-05-03 20:42:01:884
2.2978;-5.2391;0.4752;37210;2021-05-03 20:42:01:934
2.2978;-5.2391;0.4752;37260;2021-05-03 20:42:01:984
-1.1211;-6.4362;-2.235;37310;2021-05-03 20:42:02:034
-1.1211;-6.4362;-2.235;37360;2021-05-03 20:42:02:084
-5.4019;-15.7018;-9.4679;37410;2021-05-03 20:42:02:134
-5.4019;-15.7018;-9.4679;37460;2021-05-03 20:42:02:184
1.989;-12.9844;0.0227;37510;2021-05-03 20:42:02:234
1.989;-12.9844;0.0227;37561;2021-05-03 20:42:02:285
0.5764;-8.816;1.3587;37610;2021-05-03 20:42:02:334
0.5764;-8.816;1.3587;37660;2021-05-03 20:42:02:384
-0.8314;-9.1608;0.6476;37710;2021-05-03 20:42:02:434
-0.8314;-9.1608;0.6476;37760;2021-05-03 20:42:02:484
-1.0421;-10.7362;-0.322;37810;2021-05-03 20:42:02:534
-1.0421;-10.7362;-0.322;37860;2021-05-03 20:42:02:584
0.1024;-9.0914;-0.5303;37910;2021-05-03 20:42:02:634
0.1024;-9.0914;-0.5303;37960;2021-05-03 20:42:02:684
-0.7883;-12.2134;-0.5136;38010;2021-05-03 20:42:02:734
-0.7883;-12.2134;-0.5136;38059;2021-05-03 20:42:02:783
-1.5544;-10.9732;1.3994;38110;2021-05-03 20:42:02:834
-1.5544;-10.9732;1.3994;38160;2021-05-03 20:42:02:884
2.0105;-14.5358;1.4617;38210;2021-05-03 20:42:02:934
2.0105;-14.5358;1.4617;38260;2021-05-03 20:42:02:984
1.6011;-5.5384;0.6572;38310;2021-05-03 20:42:03:034
1.6011;-5.5384;0.6572;38360;2021-05-03 20:42:03:084
-0.0078;-7.2239;-0.1927;38410;2021-05-03 20:42:03:134
-0.0078;-7.2239;-0.1927;38460;2021-05-03 20:42:03:184
-3.2256;-11.816;-10.0233;38510;2021-05-03 20:42:03:234
-3.2256;-11.816;-10.0233;38559;2021-05-03 20:42:03:283
-1.054;-6.8648;-2.0075;38610;2021-05-03 20:42:03:334
-1.054;-6.8648;-2.0075;38660;2021-05-03 20:42:03:384
1.242;-6.5559;0.8918;38710;2021-05-03 20:42:03:434
1.242;-6.5559;0.8918;38760;2021-05-03 20:42:03:484
0.0664;-12.3427;1.385;38810;2021-05-03 20:42:03:534
0.0664;-12.3427;1.385;38860;2021-05-03 20:42:03:584
-1.1139;-9.5559;0.0587;38910;2021-05-03 20:42:03:634
-1.1139;-9.5559;0.0587;38960;2021-05-03 20:42:03:684
-0.4627;-9.0315;-0.3364;39010;2021-05-03 20:42:03:734
-0.4627;-9.0315;-0.3364;39060;2021-05-03 20:42:03:784
0.4184;-10.2143;-0.322;39110;2021-05-03 20:42:03:834
0.4184;-10.2143;-0.322;39160;2021-05-03 20:42:03:884
-1.4515;-11.8112;-0.7649;39210;2021-05-03 20:42:03:934
-1.4515;-11.8112;-0.7649;39260;2021-05-03 20:42:03:984
-1.4228;-11.6723;0.0227;39310;2021-05-03 20:42:04:034
-1.4228;-11.6723;0.0227;39359;2021-05-03 20:42:04:083
1.2707;-12.5797;2.4672;39410;2021-05-03 20:42:04:134
1.2707;-12.5797;2.4672;39459;2021-05-03 20:42:04:183
0.4136;-7.504;-0.6931;39510;2021-05-03 20:42:04:234
0.4136;-7.504;-0.6931;39559;2021-05-03 20:42:04:283
1.3617;-5.3708;0.3938;39610;2021-05-03 20:42:04:334
1.3617;-5.3708;0.3938;39660;2021-05-03 20:42:04:384
-6.0172;-15.2852;-12.9706;39710;2021-05-03 20:42:04:434
-6.0172;-15.2852;-12.9706;39760;2021-05-03 20:42:04:484
2.6713;-11.1815;0.7195;39810;2021-05-03 20:42:04:534
2.6713;-11.1815;0.7195;39860;2021-05-03 20:42:04:584
0.2556;-11.3108;1.9692;39910;2021-05-03 20:42:04:634
0.2556;-11.3108;1.9692;39960;2021-05-03 20:42:04:684
-0.8074;-9.3452;0.4633;40010;2021-05-03 20:42:04:734
-0.8074;-9.3452;0.4633;40060;2021-05-03 20:42:04:784
-0.1538;-8.4378;0.0467;40110;2021-05-03 20:42:04:834
-0.1538;-8.4378;0.0467;40160;2021-05-03 20:42:04:884
1.1247;-10.0874;-4.9476;40210;2021-05-03 20:42:04:934
1.1247;-10.0874;-4.9476;40260;2021-05-03 20:42:04:984
-2.7444;-11.4928;-2.405;40310;2021-05-03 20:42:05:034
-2.7444;-11.4928;-2.405;40360;2021-05-03 20:42:05:084
-0.8769;-11.5454;1.4856;40411;2021-05-03 20:42:05:135
-0.8769;-11.5454;1.4856;40460;2021-05-03 20:42:05:184
2.6809;-12.0123;1.7274;40510;2021-05-03 20:42:05:234
2.6809;-12.0123;1.7274;40560;2021-05-03 20:42:05:284
0.9355;-4.8417;-0.5638;40610;2021-05-03 20:42:05:334
0.9355;-4.8417;-0.5638;40661;2021-05-03 20:42:05:385
0.6817;-6.6301;-2.1991;40710;2021-05-03 20:42:05:434
0.6817;-6.6301;-2.1991;40760;2021-05-03 20:42:05:484
-4.1665;-12.63;-6.4895;40810;2021-05-03 20:42:05:534
-4.1665;-12.63;-6.4895;40860;2021-05-03 20:42:05:584
-0.6997;-13.4608;-0.1592;40910;2021-05-03 20:42:05:634
-0.6997;-13.4608;-0.1592;40960;2021-05-03 20:42:05:684
2.7791;-8.1481;1.2534;41010;2021-05-03 20:42:05:734
2.7791;-8.1481;1.2534;41060;2021-05-03 20:42:05:784
0.6841;-8.4761;0.4489;41110;2021-05-03 20:42:05:834
0.6841;-8.4761;0.4489;41159;2021-05-03 20:42:05:883
-1.1043;-10.5758;0.4705;41210;2021-05-03 20:42:05:934
-1.1043;-10.5758;0.4705;41260;2021-05-03 20:42:05:984
-1.6526;-9.2207;-0.2646;41310;2021-05-03 20:42:06:034
-1.6526;-9.2207;-0.2646;41360;2021-05-03 20:42:06:084
-0.7093;-11.816;-2.3547;41410;2021-05-03 20:42:06:134
-0.7093;-11.816;-2.3547;41460;2021-05-03 20:42:06:184
-0.2257;-10.1329;-2.0315;41510;2021-05-03 20:42:06:234
-0.2257;-10.1329;-2.0315;41560;2021-05-03 20:42:06:284
2.3194;-16.1016;1.0187;41610;2021-05-03 20:42:06:334
2.3194;-16.1016;1.0187;41660;2021-05-03 20:42:06:384
3.3369;-5.5121;-0.5327;41710;2021-05-03 20:42:06:434
3.3369;-5.5121;-0.5327;41760;2021-05-03 20:42:06:484
1.0289;-5.9717;0.2358;41810;2021-05-03 20:42:06:534
1.0289;-5.9717;0.2358;41860;2021-05-03 20:42:06:584
-2.6366;-9.9701;-8.9938;41909;2021-05-03 20:42:06:633
-2.6366;-9.9701;-8.9938;41960;2021-05-03 20:42:06:684
-0.8888;-12.0626;-3.4153;42010;2021-05-03 20:42:06:734
-0.8888;-12.0626;-3.4153;42060;2021-05-03 20:42:06:784
2.2883;-7.0803;2.0913;42110;2021-05-03 20:42:06:834
2.2883;-7.0803;2.0913;42364;2021-05-03 20:42:07:088
2.2883;-7.0803;2.0913;42364;2021-05-03 20:42:07:088
2.2883;-7.0803;2.0913;42364;2021-05-03 20:42:07:088
2.2883;-7.0803;2.0913;42364;2021-05-03 20:42:07:088
2.2883;-7.0803;2.0913;42364;2021-05-03 20:42:07:088
2.2883;-7.0803;2.0913;42364;2021-05-03 20:42:07:088
2.2883;-7.0803;2.0913;42364;2021-05-03 20:42:07:088
2.2883;-7.0803;2.0913;42364;2021-05-03 20:42:07:088
2.2883;-7.0803;2.0913;42364;2021-05-03 20:42:07:088
2.2883;-7.0803;2.0913;42364;2021-05-03 20:42:07:088
2.2883;-7.0803;2.0913;42364;2021-05-03 20:42:07:088
2.2883;-7.0803;2.0913;42364;2021-05-03 20:42:07:088
2.2883;-7.0803;2.0913;42364;2021-05-03 20:42:07:088
2.2883;-7.0803;2.0913;42365;2021-05-03 20:42:07:089
2.2883;-7.0803;2.0913;42365;2021-05-03 20:42:07:089
2.2883;-7.0803;2.0913;42365;2021-05-03 20:42:07:089
2.2883;-7.0803;2.0913;42365;2021-05-03 20:42:07:089
2.2883;-7.0803;2.0913;42365;2021-05-03 20:42:07:089
2.2883;-7.0803;2.0913;42365;2021-05-03 20:42:07:089
2.2883;-7.0803;2.0913;42365;2021-05-03 20:42:07:089
2.2883;-7.0803;2.0913;42365;2021-05-03 20:42:07:089
2.2883;-7.0803;2.0913;42365;2021-05-03 20:42:07:089
2.2883;-7.0803;2.0913;42365;2021-05-03 20:42:07:089
2.2883;-7.0803;2.0913;42365;2021-05-03 20:42:07:089
2.2883;-7.0803;2.0913;42365;2021-05-03 20:42:07:089
2.2883;-7.0803;2.0913;42365;2021-05-03 20:42:07:089
2.2883;-7.0803;2.0913;42365;2021-05-03 20:42:07:089
2.2883;-7.0803;2.0913;42365;2021-05-03 20:42:07:089
2.2883;-7.0803;2.0913;42365;2021-05-03 20:42:07:089
2.2883;-7.0803;2.0913;42365;2021-05-03 20:42:07:089
2.2883;-7.0803;2.0913;42365;2021-05-03 20:42:07:089
2.2883;-7.0803;2.0913;42365;2021-05-03 20:42:07:089
2.2883;-7.0803;2.0913;42365;2021-05-03 20:42:07:089
2.2883;-7.0803;2.0913;42365;2021-05-03 20:42:07:089
2.2883;-7.0803;2.0913;42365;2021-05-03 20:42:07:089
2.2883;-7.0803;2.0913;42365;2021-05-03 20:42:07:089
2.2883;-7.0803;2.0913;42365;2021-05-03 20:42:07:089
2.2883;-7.0803;2.0913;42365;2021-05-03 20:42:07:089
2.2883;-7.0803;2.0913;42365;2021-05-03 20:42:07:089
2.2883;-7.0803;2.0913;42365;2021-05-03 20:42:07:089
2.2883;-7.0803;2.0913;42365;2021-05-03 20:42:07:089
2.2883;-7.0803;2.0913;42365;2021-05-03 20:42:07:089
2.2883;-7.0803;2.0913;42365;2021-05-03 20:42:07:089
2.2883;-7.0803;2.0913;42365;2021-05-03 20:42:07:089
2.2883;-7.0803;2.0913;42365;2021-05-03 20:42:07:089
2.2883;-7.0803;2.0913;42365;2021-05-03 20:42:07:089
2.2883;-7.0803;2.0913;42365;2021-05-03 20:42:07:089
2.2883;-7.0803;2.0913;42366;2021-05-03 20:42:07:090
2.2883;-7.0803;2.0913;42366;2021-05-03 20:42:07:090
2.2883;-7.0803;2.0913;42366;2021-05-03 20:42:07:090
2.2883;-7.0803;2.0913;42366;2021-05-03 20:42:07:090
2.2883;-7.0803;2.0913;42366;2021-05-03 20:42:07:090
2.2883;-7.0803;2.0913;42366;2021-05-03 20:42:07:090
2.2883;-7.0803;2.0913;42366;2021-05-03 20:42:07:090
2.2883;-7.0803;2.0913;42366;2021-05-03 20:42:07:090
2.2883;-7.0803;2.0913;42366;2021-05-03 20:42:07:090
2.2883;-7.0803;2.0913;42366;2021-05-03 20:42:07:090
2.2883;-7.0803;2.0913;42367;2021-05-03 20:42:07:091
2.2883;-7.0803;2.0913;42367;2021-05-03 20:42:07:091
2.2883;-7.0803;2.0913;42367;2021-05-03 20:42:07:091
2.2883;-7.0803;2.0913;42367;2021-05-03 20:42:07:091
2.2883;-7.0803;2.0913;42367;2021-05-03 20:42:07:091
1.2779;-9.3691;0.8727;42407;2021-05-03 20:42:07:131
1.2779;-9.3691;0.8727;42457;2021-05-03 20:42:07:181
-3.8241;-13.5566;-5.1751;42686;2021-05-03 20:42:07:410
-3.8241;-13.5566;-5.1751;42686;2021-05-03 20:42:07:410
-3.8241;-13.5566;-5.1751;42686;2021-05-03 20:42:07:410
-3.8241;-13.5566;-5.1751;42687;2021-05-03 20:42:07:411
-3.8241;-13.5566;-5.1751;42687;2021-05-03 20:42:07:411
-3.8241;-13.5566;-5.1751;42687;2021-05-03 20:42:07:411
-3.8241;-13.5566;-5.1751;42687;2021-05-03 20:42:07:411
-3.8241;-13.5566;-5.1751;42687;2021-05-03 20:42:07:411
-3.8241;-13.5566;-5.1751;42687;2021-05-03 20:42:07:411
-3.8241;-13.5566;-5.1751;42687;2021-05-03 20:42:07:411
-3.8241;-13.5566;-5.1751;42687;2021-05-03 20:42:07:411
-3.8241;-13.5566;-5.1751;42687;2021-05-03 20:42:07:411
-3.8241;-13.5566;-5.1751;42688;2021-05-03 20:42:07:412
-3.8241;-13.5566;-5.1751;42688;2021-05-03 20:42:07:412
-3.8241;-13.5566;-5.1751;42688;2021-05-03 20:42:07:412
-3.8241;-13.5566;-5.1751;42688;2021-05-03 20:42:07:412
-3.8241;-13.5566;-5.1751;42688;2021-05-03 20:42:07:412
-3.8241;-13.5566;-5.1751;42688;2021-05-03 20:42:07:412
-3.8241;-13.5566;-5.1751;42688;2021-05-03 20:42:07:412
-3.8241;-13.5566;-5.1751;42688;2021-05-03 20:42:07:412
-3.8241;-13.5566;-5.1751;42688;2021-05-03 20:42:07:412
-3.8241;-13.5566;-5.1751;42688;2021-05-03 20:42:07:412
-3.8241;-13.5566;-5.1751;42688;2021-05-03 20:42:07:412
-3.8241;-13.5566;-5.1751;42688;2021-05-03 20:42:07:412
-3.8241;-13.5566;-5.1751;42688;2021-05-03 20:42:07:412
-3.8241;-13.5566;-5.1751;42688;2021-05-03 20:42:07:412
-3.8241;-13.5566;-5.1751;42688;2021-05-03 20:42:07:412
-3.8241;-13.5566;-5.1751;42688;2021-05-03 20:42:07:412
-3.8241;-13.5566;-5.1751;42688;2021-05-03 20:42:07:412
-3.8241;-13.5566;-5.1751;42688;2021-05-03 20:42:07:412
-3.8241;-13.5566;-5.1751;42688;2021-05-03 20:42:07:412
-3.8241;-13.5566;-5.1751;42688;2021-05-03 20:42:07:412
-3.8241;-13.5566;-5.1751;42688;2021-05-03 20:42:07:412
-3.8241;-13.5566;-5.1751;42688;2021-05-03 20:42:07:412
-3.8241;-13.5566;-5.1751;42688;2021-05-03 20:42:07:412
-3.8241;-13.5566;-5.1751;42688;2021-05-03 20:42:07:412
-3.8241;-13.5566;-5.1751;42688;2021-05-03 20:42:07:412
-3.8241;-13.5566;-5.1751;42688;2021-05-03 20:42:07:412
-3.8241;-13.5566;-5.1751;42688;2021-05-03 20:42:07:412
-3.8241;-13.5566;-5.1751;42689;2021-05-03 20:42:07:413
-3.8241;-13.5566;-5.1751;42689;2021-05-03 20:42:07:413
-3.8241;-13.5566;-5.1751;42689;2021-05-03 20:42:07:413
-3.8241;-13.5566;-5.1751;42689;2021-05-03 20:42:07:413
-3.8241;-13.5566;-5.1751;42689;2021-05-03 20:42:07:413
-3.8241;-13.5566;-5.1751;42689;2021-05-03 20:42:07:413
-3.8241;-13.5566;-5.1751;42689;2021-05-03 20:42:07:413
-3.8241;-13.5566;-5.1751;42689;2021-05-03 20:42:07:413
-3.8241;-13.5566;-5.1751;42689;2021-05-03 20:42:07:413
-3.8241;-13.5566;-5.1751;42689;2021-05-03 20:42:07:413
-3.8241;-13.5566;-5.1751;42689;2021-05-03 20:42:07:413
-3.8241;-13.5566;-5.1751;42689;2021-05-03 20:42:07:413
-3.8241;-13.5566;-5.1751;42689;2021-05-03 20:42:07:413
-3.8241;-13.5566;-5.1751;42689;2021-05-03 20:42:07:413
-3.8241;-13.5566;-5.1751;42689;2021-05-03 20:42:07:413
-3.8241;-13.5566;-5.1751;42689;2021-05-03 20:42:07:413
-3.8241;-13.5566;-5.1751;42689;2021-05-03 20:42:07:413
-3.8241;-13.5566;-5.1751;42689;2021-05-03 20:42:07:413
-3.8241;-13.5566;-5.1751;42689;2021-05-03 20:42:07:413
-3.8241;-13.5566;-5.1751;42689;2021-05-03 20:42:07:413
-3.8241;-13.5566;-5.1751;42689;2021-05-03 20:42:07:413
-3.8241;-13.5566;-5.1751;42689;2021-05-03 20:42:07:413
-3.8241;-13.5566;-5.1751;42689;2021-05-03 20:42:07:413
-3.8241;-13.5566;-5.1751;42689;2021-05-03 20:42:07:413
-3.8241;-13.5566;-5.1751;42689;2021-05-03 20:42:07:413
-3.8241;-13.5566;-5.1751;42689;2021-05-03 20:42:07:413
-3.8241;-13.5566;-5.1751;42689;2021-05-03 20:42:07:413
-3.8241;-13.5566;-5.1751;42689;2021-05-03 20:42:07:413
-3.8241;-13.5566;-5.1751;42689;2021-05-03 20:42:07:413
-3.8241;-13.5566;-5.1751;42689;2021-05-03 20:42:07:413
-3.8241;-13.5566;-5.1751;42689;2021-05-03 20:42:07:413
-3.8241;-13.5566;-5.1751;42689;2021-05-03 20:42:07:413
-3.8241;-13.5566;-5.1751;42689;2021-05-03 20:42:07:413
-3.8241;-13.5566;-5.1751;42689;2021-05-03 20:42:07:413
-3.8241;-13.5566;-5.1751;42689;2021-05-03 20:42:07:413
-3.8241;-13.5566;-5.1751;42690;2021-05-03 20:42:07:414
-3.8241;-13.5566;-5.1751;42690;2021-05-03 20:42:07:414
-3.8241;-13.5566;-5.1751;42690;2021-05-03 20:42:07:414
-3.8241;-13.5566;-5.1751;42690;2021-05-03 20:42:07:414
-3.8241;-13.5566;-5.1751;42690;2021-05-03 20:42:07:414
-3.8241;-13.5566;-5.1751;42690;2021-05-03 20:42:07:414
-3.8241;-13.5566;-5.1751;42690;2021-05-03 20:42:07:414
-3.8241;-13.5566;-5.1751;42690;2021-05-03 20:42:07:414
-3.8241;-13.5566;-5.1751;42690;2021-05-03 20:42:07:414
-3.8241;-13.5566;-5.1751;42690;2021-05-03 20:42:07:414
-3.8241;-13.5566;-5.1751;42690;2021-05-03 20:42:07:414
-3.8241;-13.5566;-5.1751;42690;2021-05-03 20:42:07:414
-3.8241;-13.5566;-5.1751;42690;2021-05-03 20:42:07:414
-3.8241;-13.5566;-5.1751;42690;2021-05-03 20:42:07:414
-3.8241;-13.5566;-5.1751;42690;2021-05-03 20:42:07:414
-3.8241;-13.5566;-5.1751;42690;2021-05-03 20:42:07:414
-3.8241;-13.5566;-5.1751;42690;2021-05-03 20:42:07:414
-3.8241;-13.5566;-5.1751;42690;2021-05-03 20:42:07:414
-3.8241;-13.5566;-5.1751;42690;2021-05-03 20:42:07:414
-3.8241;-13.5566;-5.1751;42691;2021-05-03 20:42:07:415
-3.8241;-13.5566;-5.1751;42691;2021-05-03 20:42:07:415
-3.8241;-13.5566;-5.1751;42691;2021-05-03 20:42:07:415
-3.8241;-13.5566;-5.1751;42691;2021-05-03 20:42:07:415
-3.8241;-13.5566;-5.1751;42691;2021-05-03 20:42:07:415
-3.8241;-13.5566;-5.1751;42691;2021-05-03 20:42:07:415
-3.8241;-13.5566;-5.1751;42691;2021-05-03 20:42:07:415
-3.8241;-13.5566;-5.1751;42691;2021-05-03 20:42:07:415
-3.8241;-13.5566;-5.1751;42691;2021-05-03 20:42:07:415
-3.8241;-13.5566;-5.1751;42691;2021-05-03 20:42:07:415
-3.8241;-13.5566;-5.1751;42691;2021-05-03 20:42:07:415
-3.8241;-13.5566;-5.1751;42691;2021-05-03 20:42:07:415
-3.8241;-13.5566;-5.1751;42691;2021-05-03 20:42:07:415
-3.8241;-13.5566;-5.1751;42691;2021-05-03 20:42:07:415
-3.8241;-13.5566;-5.1751;42691;2021-05-03 20:42:07:415
-3.8241;-13.5566;-5.1751;42691;2021-05-03 20:42:07:415
-3.8241;-13.5566;-5.1751;42691;2021-05-03 20:42:07:415
-3.8241;-13.5566;-5.1751;42691;2021-05-03 20:42:07:415
-3.8241;-13.5566;-5.1751;42691;2021-05-03 20:42:07:415
-3.8241;-13.5566;-5.1751;42691;2021-05-03 20:42:07:415
-3.8241;-13.5566;-5.1751;42691;2021-05-03 20:42:07:415
-3.8241;-13.5566;-5.1751;42691;2021-05-03 20:42:07:415
-3.8241;-13.5566;-5.1751;42691;2021-05-03 20:42:07:415
-3.8241;-13.5566;-5.1751;42691;2021-05-03 20:42:07:415
-3.8241;-13.5566;-5.1751;42691;2021-05-03 20:42:07:415
-3.8241;-13.5566;-5.1751;42692;2021-05-03 20:42:07:416
-3.8241;-13.5566;-5.1751;42692;2021-05-03 20:42:07:416
-3.8241;-13.5566;-5.1751;42692;2021-05-03 20:42:07:416
-3.8241;-13.5566;-5.1751;42692;2021-05-03 20:42:07:416
-3.8241;-13.5566;-5.1751;42692;2021-05-03 20:42:07:416
-3.8241;-13.5566;-5.1751;42692;2021-05-03 20:42:07:416
-3.8241;-13.5566;-5.1751;42692;2021-05-03 20:42:07:416
-3.8241;-13.5566;-5.1751;42692;2021-05-03 20:42:07:416
-3.8241;-13.5566;-5.1751;42692;2021-05-03 20:42:07:416
-3.8241;-13.5566;-5.1751;42693;2021-05-03 20:42:07:417
-3.8241;-13.5566;-5.1751;42693;2021-05-03 20:42:07:417
-3.8241;-13.5566;-5.1751;42693;2021-05-03 20:42:07:417
-3.8241;-13.5566;-5.1751;42693;2021-05-03 20:42:07:417
-3.8241;-13.5566;-5.1751;42693;2021-05-03 20:42:07:417
-3.8241;-13.5566;-5.1751;42693;2021-05-03 20:42:07:417
-3.8241;-13.5566;-5.1751;42693;2021-05-03 20:42:07:417
-3.8241;-13.5566;-5.1751;42693;2021-05-03 20:42:07:417
-3.8241;-13.5566;-5.1751;42693;2021-05-03 20:42:07:417
-3.8241;-13.5566;-5.1751;42693;2021-05-03 20:42:07:417
-3.8241;-13.5566;-5.1751;42693;2021-05-03 20:42:07:417
-3.8241;-13.5566;-5.1751;42693;2021-05-03 20:42:07:417
-3.8241;-13.5566;-5.1751;42693;2021-05-03 20:42:07:417
-3.8241;-13.5566;-5.1751;42693;2021-05-03 20:42:07:417
-3.8241;-13.5566;-5.1751;42693;2021-05-03 20:42:07:417
-3.8241;-13.5566;-5.1751;42693;2021-05-03 20:42:07:417
-3.8241;-13.5566;-5.1751;42693;2021-05-03 20:42:07:417
-3.8241;-13.5566;-5.1751;42693;2021-05-03 20:42:07:417
-3.8241;-13.5566;-5.1751;42693;2021-05-03 20:42:07:417
-3.8241;-13.5566;-5.1751;42693;2021-05-03 20:42:07:417
-3.8241;-13.5566;-5.1751;42693;2021-05-03 20:42:07:417
-3.8241;-13.5566;-5.1751;42693;2021-05-03 20:42:07:417
-3.8241;-13.5566;-5.1751;42693;2021-05-03 20:42:07:417
-3.8241;-13.5566;-5.1751;42693;2021-05-03 20:42:07:417
-3.8241;-13.5566;-5.1751;42693;2021-05-03 20:42:07:417
-3.8241;-13.5566;-5.1751;42693;2021-05-03 20:42:07:417
-3.8241;-13.5566;-5.1751;42693;2021-05-03 20:42:07:417
-3.8241;-13.5566;-5.1751;42693;2021-05-03 20:42:07:417
-3.8241;-13.5566;-5.1751;42693;2021-05-03 20:42:07:417
-3.8241;-13.5566;-5.1751;42693;2021-05-03 20:42:07:417
-3.8241;-13.5566;-5.1751;42694;2021-05-03 20:42:07:418
-3.8241;-13.5566;-5.1751;42694;2021-05-03 20:42:07:418
-3.8241;-13.5566;-5.1751;42694;2021-05-03 20:42:07:418
-3.8241;-13.5566;-5.1751;42694;2021-05-03 20:42:07:418
-3.8241;-13.5566;-5.1751;42694;2021-05-03 20:42:07:418
-3.8241;-13.5566;-5.1751;42694;2021-05-03 20:42:07:418
-3.8241;-13.5566;-5.1751;42694;2021-05-03 20:42:07:418
-3.8241;-13.5566;-5.1751;42694;2021-05-03 20:42:07:418
-3.8241;-13.5566;-5.1751;42694;2021-05-03 20:42:07:418
-3.8241;-13.5566;-5.1751;42694;2021-05-03 20:42:07:418
-3.8241;-13.5566;-5.1751;42694;2021-05-03 20:42:07:418
-3.8241;-13.5566;-5.1751;42694;2021-05-03 20:42:07:418
-3.8241;-13.5566;-5.1751;42694;2021-05-03 20:42:07:418
-3.8241;-13.5566;-5.1751;42694;2021-05-03 20:42:07:418
-3.8241;-13.5566;-5.1751;42694;2021-05-03 20:42:07:418
-3.8241;-13.5566;-5.1751;42694;2021-05-03 20:42:07:418
-3.8241;-13.5566;-5.1751;42694;2021-05-03 20:42:07:418
-3.8241;-13.5566;-5.1751;42694;2021-05-03 20:42:07:418
-3.8241;-13.5566;-5.1751;42694;2021-05-03 20:42:07:418
-3.8241;-13.5566;-5.1751;42694;2021-05-03 20:42:07:418
-3.8241;-13.5566;-5.1751;42694;2021-05-03 20:42:07:418
-3.8241;-13.5566;-5.1751;42694;2021-05-03 20:42:07:418
-3.8241;-13.5566;-5.1751;42694;2021-05-03 20:42:07:418
-3.8241;-13.5566;-5.1751;42694;2021-05-03 20:42:07:418
-3.8241;-13.5566;-5.1751;42694;2021-05-03 20:42:07:418
-3.8241;-13.5566;-5.1751;42694;2021-05-03 20:42:07:418
-3.8241;-13.5566;-5.1751;42694;2021-05-03 20:42:07:418
-3.8241;-13.5566;-5.1751;42694;2021-05-03 20:42:07:418
-3.8241;-13.5566;-5.1751;42694;2021-05-03 20:42:07:418
-3.8241;-13.5566;-5.1751;42694;2021-05-03 20:42:07:418
-3.8241;-13.5566;-5.1751;42694;2021-05-03 20:42:07:418
-3.8241;-13.5566;-5.1751;42694;2021-05-03 20:42:07:418
-3.8241;-13.5566;-5.1751;42694;2021-05-03 20:42:07:418
-3.8241;-13.5566;-5.1751;42695;2021-05-03 20:42:07:419
-3.8241;-13.5566;-5.1751;42695;2021-05-03 20:42:07:419
-3.8241;-13.5566;-5.1751;42695;2021-05-03 20:42:07:419
-3.8241;-13.5566;-5.1751;42695;2021-05-03 20:42:07:419
-3.8241;-13.5566;-5.1751;42695;2021-05-03 20:42:07:419
-3.8241;-13.5566;-5.1751;42695;2021-05-03 20:42:07:419
-3.8241;-13.5566;-5.1751;42695;2021-05-03 20:42:07:419
-3.8241;-13.5566;-5.1751;42695;2021-05-03 20:42:07:419
-3.8241;-13.5566;-5.1751;42695;2021-05-03 20:42:07:419
-3.8241;-13.5566;-5.1751;42695;2021-05-03 20:42:07:419
-3.8241;-13.5566;-5.1751;42695;2021-05-03 20:42:07:419
-3.8241;-13.5566;-5.1751;42695;2021-05-03 20:42:07:419
-3.8241;-13.5566;-5.1751;42695;2021-05-03 20:42:07:419
-3.8241;-13.5566;-5.1751;42695;2021-05-03 20:42:07:419
-3.8241;-13.5566;-5.1751;42696;2021-05-03 20:42:07:420
-3.8241;-13.5566;-5.1751;42696;2021-05-03 20:42:07:420
-3.8241;-13.5566;-5.1751;42696;2021-05-03 20:42:07:420
-3.8241;-13.5566;-5.1751;42696;2021-05-03 20:42:07:420
-3.8241;-13.5566;-5.1751;42696;2021-05-03 20:42:07:420
-3.8241;-13.5566;-5.1751;42696;2021-05-03 20:42:07:420
-3.8241;-13.5566;-5.1751;42696;2021-05-03 20:42:07:420
-3.8241;-13.5566;-5.1751;42696;2021-05-03 20:42:07:420
-3.8241;-13.5566;-5.1751;42696;2021-05-03 20:42:07:420
-3.8241;-13.5566;-5.1751;42696;2021-05-03 20:42:07:420
2.5181;-14.6603;-1.9046;42708;2021-05-03 20:42:07:432
2.5181;-14.6603;-1.9046;42758;2021-05-03 20:42:07:482
-0.7428;-9.417;-11.7639;42945;2021-05-03 20:42:07:669
-0.7428;-9.417;-11.7639;42946;2021-05-03 20:42:07:670
-0.7428;-9.417;-11.7639;42946;2021-05-03 20:42:07:670
-0.2041;-9.1704;0.7769;42958;2021-05-03 20:42:07:682
-0.2041;-9.1704;0.7769;43008;2021-05-03 20:42:07:732
-1.1785;-12.1512;0.9732;43058;2021-05-03 20:42:07:782
-1.1785;-12.1512;0.9732;43108;2021-05-03 20:42:07:832
1.0888;-12.6228;1.7107;43158;2021-05-03 20:42:07:882
1.0888;-12.6228;1.7107;43208;2021-05-03 20:42:07:932
-0.7739;-6.7403;-0.8224;43258;2021-05-03 20:42:07:982
-0.7739;-6.7403;-0.8224;43308;2021-05-03 20:42:08:032
1.2037;-7.3173;0.4896;43358;2021-05-03 20:42:08:082
1.2037;-7.3173;0.4896;43408;2021-05-03 20:42:08:132
1.7567;-10.3795;-5.7952;43458;2021-05-03 20:42:08:182
1.7567;-10.3795;-5.7952;43508;2021-05-03 20:42:08:232
-1.3797;-6.2973;1.2845;43558;2021-05-03 20:42:08:282
-1.3797;-6.2973;1.2845;43607;2021-05-03 20:42:08:331
0.4064;-9.1129;2.7928;43658;2021-05-03 20:42:08:382
0.4064;-9.1129;2.7928;43708;2021-05-03 20:42:08:432
0.2771;-11.7537;1.8399;43758;2021-05-03 20:42:08:482
0.2771;-11.7537;1.8399;43808;2021-05-03 20:42:08:532
0.4878;-8.6604;0.1305;43858;2021-05-03 20:42:08:582
0.4878;-8.6604;0.1305;43909;2021-05-03 20:42:08:633
0.756;-9.8336;0.0539;43958;2021-05-03 20:42:08:682
0.756;-9.8336;0.0539;44008;2021-05-03 20:42:08:732
-2.074;-10.8008;-19.4397;44058;2021-05-03 20:42:08:782
-2.074;-10.8008;-19.4397;44108;2021-05-03 20:42:08:832
-2.8832;-11.8471;0.504;44158;2021-05-03 20:42:08:882
-2.8832;-11.8471;0.504;44208;2021-05-03 20:42:08:932
-0.24;-14.452;1.4257;44258;2021-05-03 20:42:08:982
-0.24;-14.452;1.4257;44308;2021-05-03 20:42:09:032
3.0185;-7.9398;0.7626;44359;2021-05-03 20:42:09:083
3.0185;-7.9398;0.7626;44408;2021-05-03 20:42:09:132
2.2476;-5.6796;1.4305;44458;2021-05-03 20:42:09:182
2.2476;-5.6796;1.4305;44508;2021-05-03 20:42:09:232
-4.03;-9.9916;-12.2667;44558;2021-05-03 20:42:09:282
-4.03;-9.9916;-12.2667;44608;2021-05-03 20:42:09:332
-0.6327;-8.9597;-3.7888;44658;2021-05-03 20:42:09:382
-0.6327;-8.9597;-3.7888;44708;2021-05-03 20:42:09:432
1.3976;-7.5304;2.958;44758;2021-05-03 20:42:09:482
1.3976;-7.5304;2.958;44808;2021-05-03 20:42:09:532
-0.0868;-11.7082;2.0818;44858;2021-05-03 20:42:09:582
-0.0868;-11.7082;2.0818;45090;2021-05-03 20:42:09:814
-0.0868;-11.7082;2.0818;45091;2021-05-03 20:42:09:815
-0.0868;-11.7082;2.0818;45091;2021-05-03 20:42:09:815
-0.0868;-11.7082;2.0818;45091;2021-05-03 20:42:09:815
-0.0868;-11.7082;2.0818;45091;2021-05-03 20:42:09:815
-0.0868;-11.7082;2.0818;45091;2021-05-03 20:42:09:815
-0.0868;-11.7082;2.0818;45091;2021-05-03 20:42:09:815
-0.0868;-11.7082;2.0818;45092;2021-05-03 20:42:09:816
-0.0868;-11.7082;2.0818;45092;2021-05-03 20:42:09:816
-0.0868;-11.7082;2.0818;45092;2021-05-03 20:42:09:816
-0.0868;-11.7082;2.0818;45092;2021-05-03 20:42:09:816
-0.0868;-11.7082;2.0818;45092;2021-05-03 20:42:09:816
-0.0868;-11.7082;2.0818;45092;2021-05-03 20:42:09:816
-0.0868;-11.7082;2.0818;45092;2021-05-03 20:42:09:816
-0.0868;-11.7082;2.0818;45092;2021-05-03 20:42:09:816
-0.0868;-11.7082;2.0818;45093;2021-05-03 20:42:09:817
-0.0868;-11.7082;2.0818;45093;2021-05-03 20:42:09:817
-0.0868;-11.7082;2.0818;45093;2021-05-03 20:42:09:817
-0.0868;-11.7082;2.0818;45093;2021-05-03 20:42:09:817
-0.0868;-11.7082;2.0818;45093;2021-05-03 20:42:09:817
-0.0868;-11.7082;2.0818;45093;2021-05-03 20:42:09:817
-0.0868;-11.7082;2.0818;45093;2021-05-03 20:42:09:817
-0.0868;-11.7082;2.0818;45094;2021-05-03 20:42:09:818
-0.0868;-11.7082;2.0818;45094;2021-05-03 20:42:09:818
-0.0868;-11.7082;2.0818;45094;2021-05-03 20:42:09:818
-0.0868;-11.7082;2.0818;45094;2021-05-03 20:42:09:818
-0.0868;-11.7082;2.0818;45094;2021-05-03 20:42:09:818
-0.0868;-11.7082;2.0818;45094;2021-05-03 20:42:09:818
-0.0868;-11.7082;2.0818;45094;2021-05-03 20:42:09:818
-0.0868;-11.7082;2.0818;45094;2021-05-03 20:42:09:818
-0.0868;-11.7082;2.0818;45095;2021-05-03 20:42:09:819
-0.0868;-11.7082;2.0818;45095;2021-05-03 20:42:09:819
-0.0868;-11.7082;2.0818;45095;2021-05-03 20:42:09:819
-0.0868;-11.7082;2.0818;45095;2021-05-03 20:42:09:819
-0.0868;-11.7082;2.0818;45095;2021-05-03 20:42:09:819
-0.0868;-11.7082;2.0818;45097;2021-05-03 20:42:09:821
-0.0868;-11.7082;2.0818;45097;2021-05-03 20:42:09:821
-0.0868;-11.7082;2.0818;45097;2021-05-03 20:42:09:821
-0.0868;-11.7082;2.0818;45097;2021-05-03 20:42:09:821
-0.0868;-11.7082;2.0818;45097;2021-05-03 20:42:09:821
-0.0868;-11.7082;2.0818;45097;2021-05-03 20:42:09:821
-0.0868;-11.7082;2.0818;45098;2021-05-03 20:42:09:822
-0.0868;-11.7082;2.0818;45098;2021-05-03 20:42:09:822
-0.0868;-11.7082;2.0818;45098;2021-05-03 20:42:09:822
-0.0868;-11.7082;2.0818;45098;2021-05-03 20:42:09:822
-0.0868;-11.7082;2.0818;45098;2021-05-03 20:42:09:822
-0.0868;-11.7082;2.0818;45098;2021-05-03 20:42:09:822
-0.0868;-11.7082;2.0818;45098;2021-05-03 20:42:09:822
-0.0868;-11.7082;2.0818;45098;2021-05-03 20:42:09:822
-0.0868;-11.7082;2.0818;45098;2021-05-03 20:42:09:822
-0.0868;-11.7082;2.0818;45098;2021-05-03 20:42:09:822
-0.0868;-11.7082;2.0818;45098;2021-05-03 20:42:09:822
-0.0868;-11.7082;2.0818;45098;2021-05-03 20:42:09:822
-0.0868;-11.7082;2.0818;45098;2021-05-03 20:42:09:822
-0.0868;-11.7082;2.0818;45098;2021-05-03 20:42:09:822
-0.0868;-11.7082;2.0818;45098;2021-05-03 20:42:09:822
-0.0868;-11.7082;2.0818;45098;2021-05-03 20:42:09:822
-0.0868;-11.7082;2.0818;45098;2021-05-03 20:42:09:822
-0.0868;-11.7082;2.0818;45099;2021-05-03 20:42:09:823
-0.0868;-11.7082;2.0818;45099;2021-05-03 20:42:09:823
-0.0868;-11.7082;2.0818;45099;2021-05-03 20:42:09:823
-0.0868;-11.7082;2.0818;45099;2021-05-03 20:42:09:823
-0.0868;-11.7082;2.0818;45099;2021-05-03 20:42:09:823
-0.0868;-11.7082;2.0818;45099;2021-05-03 20:42:09:823
-0.0868;-11.7082;2.0818;45099;2021-05-03 20:42:09:823
-0.0868;-11.7082;2.0818;45099;2021-05-03 20:42:09:823
-0.0868;-11.7082;2.0818;45099;2021-05-03 20:42:09:823
-0.0868;-11.7082;2.0818;45099;2021-05-03 20:42:09:823
-0.0868;-11.7082;2.0818;45099;2021-05-03 20:42:09:823
-0.0868;-11.7082;2.0818;45099;2021-05-03 20:42:09:823
-0.0868;-11.7082;2.0818;45099;2021-05-03 20:42:09:823
-0.0868;-11.7082;2.0818;45099;2021-05-03 20:42:09:823
-0.0868;-11.7082;2.0818;45099;2021-05-03 20:42:09:823
-0.0868;-11.7082;2.0818;45099;2021-05-03 20:42:09:823
-0.0868;-11.7082;2.0818;45099;2021-05-03 20:42:09:823
-0.0868;-11.7082;2.0818;45099;2021-05-03 20:42:09:823
-0.0868;-11.7082;2.0818;45099;2021-05-03 20:42:09:823
-0.0868;-11.7082;2.0818;45099;2021-05-03 20:42:09:823
-0.0868;-11.7082;2.0818;45099;2021-05-03 20:42:09:823
-0.0868;-11.7082;2.0818;45099;2021-05-03 20:42:09:823
-0.0868;-11.7082;2.0818;45099;2021-05-03 20:42:09:823
-0.0868;-11.7082;2.0818;45099;2021-05-03 20:42:09:823
-0.0868;-11.7082;2.0818;45099;2021-05-03 20:42:09:823
-0.0868;-11.7082;2.0818;45099;2021-05-03 20:42:09:823
-0.0868;-11.7082;2.0818;45099;2021-05-03 20:42:09:823
-0.0868;-11.7082;2.0818;45099;2021-05-03 20:42:09:823
-0.0868;-11.7082;2.0818;45099;2021-05-03 20:42:09:823
-0.0868;-11.7082;2.0818;45099;2021-05-03 20:42:09:823
-0.0868;-11.7082;2.0818;45099;2021-05-03 20:42:09:823
-0.0868;-11.7082;2.0818;45099;2021-05-03 20:42:09:823
-0.0868;-11.7082;2.0818;45100;2021-05-03 20:42:09:824
-0.0868;-11.7082;2.0818;45100;2021-05-03 20:42:09:824
-0.0868;-11.7082;2.0818;45100;2021-05-03 20:42:09:824
-0.0868;-11.7082;2.0818;45100;2021-05-03 20:42:09:824
-0.0868;-11.7082;2.0818;45100;2021-05-03 20:42:09:824
-0.0868;-11.7082;2.0818;45100;2021-05-03 20:42:09:824
-0.0868;-11.7082;2.0818;45100;2021-05-03 20:42:09:824
-0.0868;-11.7082;2.0818;45100;2021-05-03 20:42:09:824
-0.0868;-11.7082;2.0818;45100;2021-05-03 20:42:09:824
-0.0868;-11.7082;2.0818;45100;2021-05-03 20:42:09:824
-0.0868;-11.7082;2.0818;45100;2021-05-03 20:42:09:824
-0.0868;-11.7082;2.0818;45100;2021-05-03 20:42:09:824
-0.0868;-11.7082;2.0818;45100;2021-05-03 20:42:09:824
-0.0868;-11.7082;2.0818;45100;2021-05-03 20:42:09:824
-0.0868;-11.7082;2.0818;45100;2021-05-03 20:42:09:824
-0.0868;-11.7082;2.0818;45100;2021-05-03 20:42:09:824
-0.0868;-11.7082;2.0818;45100;2021-05-03 20:42:09:824
-0.0868;-11.7082;2.0818;45100;2021-05-03 20:42:09:824
-0.0868;-11.7082;2.0818;45100;2021-05-03 20:42:09:824
-0.0868;-11.7082;2.0818;45100;2021-05-03 20:42:09:824
-0.0868;-11.7082;2.0818;45100;2021-05-03 20:42:09:824
-0.0868;-11.7082;2.0818;45100;2021-05-03 20:42:09:824
-0.0868;-11.7082;2.0818;45100;2021-05-03 20:42:09:824
-0.0868;-11.7082;2.0818;45100;2021-05-03 20:42:09:824
-0.0868;-11.7082;2.0818;45100;2021-05-03 20:42:09:824
-0.0868;-11.7082;2.0818;45100;2021-05-03 20:42:09:824
-0.0868;-11.7082;2.0818;45100;2021-05-03 20:42:09:824
-0.0868;-11.7082;2.0818;45100;2021-05-03 20:42:09:824
-0.0868;-11.7082;2.0818;45101;2021-05-03 20:42:09:825
-0.0868;-11.7082;2.0818;45101;2021-05-03 20:42:09:825
-0.0868;-11.7082;2.0818;45101;2021-05-03 20:42:09:825
-0.0868;-11.7082;2.0818;45101;2021-05-03 20:42:09:825
-0.0868;-11.7082;2.0818;45101;2021-05-03 20:42:09:825
-0.0868;-11.7082;2.0818;45101;2021-05-03 20:42:09:825
-0.0868;-11.7082;2.0818;45101;2021-05-03 20:42:09:825
-0.0868;-11.7082;2.0818;45101;2021-05-03 20:42:09:825
-0.0868;-11.7082;2.0818;45101;2021-05-03 20:42:09:825
-0.0868;-11.7082;2.0818;45101;2021-05-03 20:42:09:825
-0.0868;-11.7082;2.0818;45101;2021-05-03 20:42:09:825
-0.0868;-11.7082;2.0818;45101;2021-05-03 20:42:09:825
-0.0868;-11.7082;2.0818;45101;2021-05-03 20:42:09:825
-0.0868;-11.7082;2.0818;45101;2021-05-03 20:42:09:825
-0.0868;-11.7082;2.0818;45101;2021-05-03 20:42:09:825
-0.0868;-11.7082;2.0818;45101;2021-05-03 20:42:09:825
-0.0868;-11.7082;2.0818;45101;2021-05-03 20:42:09:825
-0.0868;-11.7082;2.0818;45101;2021-05-03 20:42:09:825
-0.0868;-11.7082;2.0818;45101;2021-05-03 20:42:09:825
-0.0868;-11.7082;2.0818;45101;2021-05-03 20:42:09:825
-0.0868;-11.7082;2.0818;45102;2021-05-03 20:42:09:826
-0.0868;-11.7082;2.0818;45102;2021-05-03 20:42:09:826
-0.0868;-11.7082;2.0818;45102;2021-05-03 20:42:09:826
-0.0868;-11.7082;2.0818;45102;2021-05-03 20:42:09:826
-0.0868;-11.7082;2.0818;45102;2021-05-03 20:42:09:826
-0.0868;-11.7082;2.0818;45102;2021-05-03 20:42:09:826
-0.0868;-11.7082;2.0818;45102;2021-05-03 20:42:09:826
-0.0868;-11.7082;2.0818;45102;2021-05-03 20:42:09:826
-0.0868;-11.7082;2.0818;45102;2021-05-03 20:42:09:826
-0.0868;-11.7082;2.0818;45102;2021-05-03 20:42:09:826
-0.0868;-11.7082;2.0818;45102;2021-05-03 20:42:09:826
-0.0868;-11.7082;2.0818;45102;2021-05-03 20:42:09:826
-0.0868;-11.7082;2.0818;45102;2021-05-03 20:42:09:826
-0.0868;-11.7082;2.0818;45102;2021-05-03 20:42:09:826
-0.0868;-11.7082;2.0818;45102;2021-05-03 20:42:09:826
-0.0868;-11.7082;2.0818;45102;2021-05-03 20:42:09:826
-0.0868;-11.7082;2.0818;45102;2021-05-03 20:42:09:826
-0.0868;-11.7082;2.0818;45102;2021-05-03 20:42:09:826
-0.0868;-11.7082;2.0818;45102;2021-05-03 20:42:09:826
-0.0868;-11.7082;2.0818;45102;2021-05-03 20:42:09:826
-0.0868;-11.7082;2.0818;45102;2021-05-03 20:42:09:826
-0.0868;-11.7082;2.0818;45102;2021-05-03 20:42:09:826
-0.0868;-11.7082;2.0818;45102;2021-05-03 20:42:09:826
-0.0868;-11.7082;2.0818;45102;2021-05-03 20:42:09:826
-0.0868;-11.7082;2.0818;45102;2021-05-03 20:42:09:826
-0.0868;-11.7082;2.0818;45102;2021-05-03 20:42:09:826
-0.0868;-11.7082;2.0818;45102;2021-05-03 20:42:09:826
-0.0868;-11.7082;2.0818;45102;2021-05-03 20:42:09:826
-0.0868;-11.7082;2.0818;45102;2021-05-03 20:42:09:826
-0.0868;-11.7082;2.0818;45102;2021-05-03 20:42:09:826
-0.0868;-11.7082;2.0818;45102;2021-05-03 20:42:09:826
-0.0868;-11.7082;2.0818;45103;2021-05-03 20:42:09:827
-0.0868;-11.7082;2.0818;45103;2021-05-03 20:42:09:827
-0.0868;-11.7082;2.0818;45103;2021-05-03 20:42:09:827
-0.0868;-11.7082;2.0818;45103;2021-05-03 20:42:09:827
-0.0868;-11.7082;2.0818;45103;2021-05-03 20:42:09:827
-0.0868;-11.7082;2.0818;45103;2021-05-03 20:42:09:827
-0.0868;-11.7082;2.0818;45103;2021-05-03 20:42:09:827
-0.0868;-11.7082;2.0818;45103;2021-05-03 20:42:09:827
-0.0868;-11.7082;2.0818;45103;2021-05-03 20:42:09:827
-0.0868;-11.7082;2.0818;45103;2021-05-03 20:42:09:827
-0.0868;-11.7082;2.0818;45103;2021-05-03 20:42:09:827
-0.0868;-11.7082;2.0818;45103;2021-05-03 20:42:09:827
-0.0868;-11.7082;2.0818;45103;2021-05-03 20:42:09:827
-0.0868;-11.7082;2.0818;45103;2021-05-03 20:42:09:827
-0.0868;-11.7082;2.0818;45103;2021-05-03 20:42:09:827
-0.0868;-11.7082;2.0818;45103;2021-05-03 20:42:09:827
-0.0868;-11.7082;2.0818;45103;2021-05-03 20:42:09:827
-0.0868;-11.7082;2.0818;45103;2021-05-03 20:42:09:827
-0.0868;-11.7082;2.0818;45103;2021-05-03 20:42:09:827
-0.0868;-11.7082;2.0818;45103;2021-05-03 20:42:09:827
-0.0868;-11.7082;2.0818;45103;2021-05-03 20:42:09:827
-0.0868;-11.7082;2.0818;45103;2021-05-03 20:42:09:827
-0.0868;-11.7082;2.0818;45103;2021-05-03 20:42:09:827
-0.0868;-11.7082;2.0818;45103;2021-05-03 20:42:09:827
-0.0868;-11.7082;2.0818;45103;2021-05-03 20:42:09:827
-0.0868;-11.7082;2.0818;45103;2021-05-03 20:42:09:827
-0.0868;-11.7082;2.0818;45103;2021-05-03 20:42:09:827
-1.0349;-8.5335;0.1568;45113;2021-05-03 20:42:09:837
-1.0349;-8.5335;0.1568;45163;2021-05-03 20:42:09:887
2.5229;-13.231;1.8423;45212;2021-05-03 20:42:09:936
2.5229;-13.231;1.8423;45364;2021-05-03 20:42:10:088
2.5229;-13.231;1.8423;45364;2021-05-03 20:42:10:088
2.5229;-13.231;1.8423;45364;2021-05-03 20:42:10:088
2.5229;-13.231;1.8423;45364;2021-05-03 20:42:10:088
2.5229;-13.231;1.8423;45364;2021-05-03 20:42:10:088
2.5229;-13.231;1.8423;45364;2021-05-03 20:42:10:088
2.5229;-13.231;1.8423;45364;2021-05-03 20:42:10:088
2.5229;-13.231;1.8423;45364;2021-05-03 20:42:10:088
2.5229;-13.231;1.8423;45364;2021-05-03 20:42:10:088
2.5229;-13.231;1.8423;45364;2021-05-03 20:42:10:088
2.5229;-13.231;1.8423;45364;2021-05-03 20:42:10:088
2.5229;-13.231;1.8423;45364;2021-05-03 20:42:10:088
2.5229;-13.231;1.8423;45365;2021-05-03 20:42:10:089
2.5229;-13.231;1.8423;45365;2021-05-03 20:42:10:089
0.7392;-5.6557;0.9924;45388;2021-05-03 20:42:10:112
0.7392;-5.6557;0.9924;45437;2021-05-03 20:42:10:161
-1.1474;-9.0962;0.2191;45667;2021-05-03 20:42:10:391
-1.1474;-9.0962;0.2191;45668;2021-05-03 20:42:10:392
-1.1474;-9.0962;0.2191;45668;2021-05-03 20:42:10:392
-1.1474;-9.0962;0.2191;45668;2021-05-03 20:42:10:392
-1.1474;-9.0962;0.2191;45668;2021-05-03 20:42:10:392
-1.1474;-9.0962;0.2191;45668;2021-05-03 20:42:10:392
-1.1474;-9.0962;0.2191;45668;2021-05-03 20:42:10:392
-1.1474;-9.0962;0.2191;45668;2021-05-03 20:42:10:392
-1.1474;-9.0962;0.2191;45668;2021-05-03 20:42:10:392
-1.1474;-9.0962;0.2191;45669;2021-05-03 20:42:10:393
-1.1474;-9.0962;0.2191;45669;2021-05-03 20:42:10:393
-1.1474;-9.0962;0.2191;45669;2021-05-03 20:42:10:393
-1.1474;-9.0962;0.2191;45669;2021-05-03 20:42:10:393
-1.1474;-9.0962;0.2191;45669;2021-05-03 20:42:10:393
-1.1474;-9.0962;0.2191;45669;2021-05-03 20:42:10:393
-1.1474;-9.0962;0.2191;45670;2021-05-03 20:42:10:394
-1.1474;-9.0962;0.2191;45670;2021-05-03 20:42:10:394
-1.1474;-9.0962;0.2191;45670;2021-05-03 20:42:10:394
-1.1474;-9.0962;0.2191;45670;2021-05-03 20:42:10:394
-1.1474;-9.0962;0.2191;45670;2021-05-03 20:42:10:394
-1.1474;-9.0962;0.2191;45671;2021-05-03 20:42:10:395
-1.1474;-9.0962;0.2191;45671;2021-05-03 20:42:10:395
-1.1474;-9.0962;0.2191;45671;2021-05-03 20:42:10:395
-1.1474;-9.0962;0.2191;45671;2021-05-03 20:42:10:395
-1.1474;-9.0962;0.2191;45671;2021-05-03 20:42:10:395
-1.1474;-9.0962;0.2191;45671;2021-05-03 20:42:10:395
-1.1474;-9.0962;0.2191;45671;2021-05-03 20:42:10:395
-1.1474;-9.0962;0.2191;45671;2021-05-03 20:42:10:395
-1.1474;-9.0962;0.2191;45671;2021-05-03 20:42:10:395
-1.1474;-9.0962;0.2191;45671;2021-05-03 20:42:10:395
-1.1474;-9.0962;0.2191;45671;2021-05-03 20:42:10:395
-1.1474;-9.0962;0.2191;45671;2021-05-03 20:42:10:395
-1.1474;-9.0962;0.2191;45672;2021-05-03 20:42:10:396
-1.1474;-9.0962;0.2191;45672;2021-05-03 20:42:10:396
-1.1474;-9.0962;0.2191;45672;2021-05-03 20:42:10:396
-1.1474;-9.0962;0.2191;45672;2021-05-03 20:42:10:396
-1.1474;-9.0962;0.2191;45672;2021-05-03 20:42:10:396
-1.1474;-9.0962;0.2191;45672;2021-05-03 20:42:10:396
-1.1474;-9.0962;0.2191;45672;2021-05-03 20:42:10:396
-1.1474;-9.0962;0.2191;45672;2021-05-03 20:42:10:396
-1.1474;-9.0962;0.2191;45672;2021-05-03 20:42:10:396
-1.1474;-9.0962;0.2191;45672;2021-05-03 20:42:10:396
-1.1474;-9.0962;0.2191;45672;2021-05-03 20:42:10:396
-1.1474;-9.0962;0.2191;45672;2021-05-03 20:42:10:396
-1.1474;-9.0962;0.2191;45672;2021-05-03 20:42:10:396
-1.1474;-9.0962;0.2191;45672;2021-05-03 20:42:10:396
-1.1474;-9.0962;0.2191;45672;2021-05-03 20:42:10:396
-1.1474;-9.0962;0.2191;45672;2021-05-03 20:42:10:396
-1.1474;-9.0962;0.2191;45672;2021-05-03 20:42:10:396
-1.1474;-9.0962;0.2191;45672;2021-05-03 20:42:10:396
-1.1474;-9.0962;0.2191;45672;2021-05-03 20:42:10:396
-1.1474;-9.0962;0.2191;45672;2021-05-03 20:42:10:396
-1.1474;-9.0962;0.2191;45672;2021-05-03 20:42:10:396
-1.1474;-9.0962;0.2191;45672;2021-05-03 20:42:10:396
-1.1474;-9.0962;0.2191;45672;2021-05-03 20:42:10:396
-1.1474;-9.0962;0.2191;45672;2021-05-03 20:42:10:396
-1.1474;-9.0962;0.2191;45672;2021-05-03 20:42:10:396
0.4926;-10.8655;-0.3029;45710;2021-05-03 20:42:10:434
0.4926;-10.8655;-0.3029;45761;2021-05-03 20:42:10:485
0.6722;-6.2255;0.2622;46017;2021-05-03 20:42:10:741
0.6722;-6.2255;0.2622;46018;2021-05-03 20:42:10:742
0.6722;-6.2255;0.2622;46018;2021-05-03 20:42:10:742
0.6722;-6.2255;0.2622;46018;2021-05-03 20:42:10:742
0.6722;-6.2255;0.2622;46018;2021-05-03 20:42:10:742
0.6722;-6.2255;0.2622;46018;2021-05-03 20:42:10:742
0.6722;-6.2255;0.2622;46018;2021-05-03 20:42:10:742
0.6722;-6.2255;0.2622;46018;2021-05-03 20:42:10:742
0.6722;-6.2255;0.2622;46018;2021-05-03 20:42:10:742
0.6722;-6.2255;0.2622;46018;2021-05-03 20:42:10:742
0.6722;-6.2255;0.2622;46018;2021-05-03 20:42:10:742
0.6722;-6.2255;0.2622;46019;2021-05-03 20:42:10:743
0.6722;-6.2255;0.2622;46019;2021-05-03 20:42:10:743
0.6722;-6.2255;0.2622;46019;2021-05-03 20:42:10:743
0.6722;-6.2255;0.2622;46019;2021-05-03 20:42:10:743
0.6722;-6.2255;0.2622;46019;2021-05-03 20:42:10:743
0.6722;-6.2255;0.2622;46019;2021-05-03 20:42:10:743
0.6722;-6.2255;0.2622;46019;2021-05-03 20:42:10:743
0.6722;-6.2255;0.2622;46019;2021-05-03 20:42:10:743
0.6722;-6.2255;0.2622;46019;2021-05-03 20:42:10:743
0.6722;-6.2255;0.2622;46019;2021-05-03 20:42:10:743
0.6722;-6.2255;0.2622;46019;2021-05-03 20:42:10:743
0.6722;-6.2255;0.2622;46019;2021-05-03 20:42:10:743
0.6722;-6.2255;0.2622;46019;2021-05-03 20:42:10:743
0.6722;-6.2255;0.2622;46019;2021-05-03 20:42:10:743
0.6722;-6.2255;0.2622;46019;2021-05-03 20:42:10:743
0.6722;-6.2255;0.2622;46020;2021-05-03 20:42:10:744
0.6722;-6.2255;0.2622;46020;2021-05-03 20:42:10:744
0.6722;-6.2255;0.2622;46020;2021-05-03 20:42:10:744
0.6722;-6.2255;0.2622;46020;2021-05-03 20:42:10:744
0.6722;-6.2255;0.2622;46020;2021-05-03 20:42:10:744
0.6722;-6.2255;0.2622;46020;2021-05-03 20:42:10:744
0.6722;-6.2255;0.2622;46020;2021-05-03 20:42:10:744
0.6722;-6.2255;0.2622;46020;2021-05-03 20:42:10:744
0.6722;-6.2255;0.2622;46020;2021-05-03 20:42:10:744
0.6722;-6.2255;0.2622;46020;2021-05-03 20:42:10:744
0.6722;-6.2255;0.2622;46020;2021-05-03 20:42:10:744
0.6722;-6.2255;0.2622;46020;2021-05-03 20:42:10:744
0.6722;-6.2255;0.2622;46020;2021-05-03 20:42:10:744
0.6722;-6.2255;0.2622;46020;2021-05-03 20:42:10:744
0.6722;-6.2255;0.2622;46021;2021-05-03 20:42:10:745
0.6722;-6.2255;0.2622;46021;2021-05-03 20:42:10:745
0.6722;-6.2255;0.2622;46021;2021-05-03 20:42:10:745
0.6722;-6.2255;0.2622;46021;2021-05-03 20:42:10:745
0.6722;-6.2255;0.2622;46021;2021-05-03 20:42:10:745
0.6722;-6.2255;0.2622;46021;2021-05-03 20:42:10:745
0.6722;-6.2255;0.2622;46021;2021-05-03 20:42:10:745
0.6722;-6.2255;0.2622;46021;2021-05-03 20:42:10:745
0.6722;-6.2255;0.2622;46021;2021-05-03 20:42:10:745
0.6722;-6.2255;0.2622;46021;2021-05-03 20:42:10:745
0.6722;-6.2255;0.2622;46021;2021-05-03 20:42:10:745
0.6722;-6.2255;0.2622;46021;2021-05-03 20:42:10:745
0.6722;-6.2255;0.2622;46021;2021-05-03 20:42:10:745
0.6722;-6.2255;0.2622;46021;2021-05-03 20:42:10:745
0.6722;-6.2255;0.2622;46021;2021-05-03 20:42:10:745
0.6722;-6.2255;0.2622;46021;2021-05-03 20:42:10:745
0.6722;-6.2255;0.2622;46022;2021-05-03 20:42:10:746
0.6722;-6.2255;0.2622;46022;2021-05-03 20:42:10:746
0.6722;-6.2255;0.2622;46022;2021-05-03 20:42:10:746
0.6722;-6.2255;0.2622;46022;2021-05-03 20:42:10:746
0.6722;-6.2255;0.2622;46022;2021-05-03 20:42:10:746
0.6722;-6.2255;0.2622;46023;2021-05-03 20:42:10:747
-4.0253;-11.0235;-3.5757;46069;2021-05-03 20:42:10:793
-4.0253;-11.0235;-3.5757;46119;2021-05-03 20:42:10:843
-3.1298;-13.0897;-5.527;46356;2021-05-03 20:42:11:080
-3.1298;-13.0897;-5.527;46356;2021-05-03 20:42:11:080
-3.1298;-13.0897;-5.527;46356;2021-05-03 20:42:11:080
-3.1298;-13.0897;-5.527;46356;2021-05-03 20:42:11:080
-3.1298;-13.0897;-5.527;46356;2021-05-03 20:42:11:080
-3.1298;-13.0897;-5.527;46356;2021-05-03 20:42:11:080
-3.1298;-13.0897;-5.527;46356;2021-05-03 20:42:11:080
-3.1298;-13.0897;-5.527;46357;2021-05-03 20:42:11:081
-3.1298;-13.0897;-5.527;46357;2021-05-03 20:42:11:081
-3.1298;-13.0897;-5.527;46357;2021-05-03 20:42:11:081
-3.1298;-13.0897;-5.527;46357;2021-05-03 20:42:11:081
-3.1298;-13.0897;-5.527;46357;2021-05-03 20:42:11:081
-3.1298;-13.0897;-5.527;46357;2021-05-03 20:42:11:081
-3.1298;-13.0897;-5.527;46357;2021-05-03 20:42:11:081
-3.1298;-13.0897;-5.527;46357;2021-05-03 20:42:11:081
-3.1298;-13.0897;-5.527;46357;2021-05-03 20:42:11:081
-3.1298;-13.0897;-5.527;46357;2021-05-03 20:42:11:081
-3.1298;-13.0897;-5.527;46357;2021-05-03 20:42:11:081
-3.1298;-13.0897;-5.527;46357;2021-05-03 20:42:11:081
-3.1298;-13.0897;-5.527;46357;2021-05-03 20:42:11:081
-3.1298;-13.0897;-5.527;46357;2021-05-03 20:42:11:081
-3.1298;-13.0897;-5.527;46357;2021-05-03 20:42:11:081
-3.1298;-13.0897;-5.527;46358;2021-05-03 20:42:11:082
-3.1298;-13.0897;-5.527;46358;2021-05-03 20:42:11:082
-3.1298;-13.0897;-5.527;46358;2021-05-03 20:42:11:082
-3.1298;-13.0897;-5.527;46358;2021-05-03 20:42:11:082
-3.1298;-13.0897;-5.527;46358;2021-05-03 20:42:11:082
-3.1298;-13.0897;-5.527;46358;2021-05-03 20:42:11:082
-3.1298;-13.0897;-5.527;46358;2021-05-03 20:42:11:082
-3.1298;-13.0897;-5.527;46358;2021-05-03 20:42:11:082
-3.1298;-13.0897;-5.527;46358;2021-05-03 20:42:11:082
-3.1298;-13.0897;-5.527;46358;2021-05-03 20:42:11:082
-3.1298;-13.0897;-5.527;46358;2021-05-03 20:42:11:082
-3.1298;-13.0897;-5.527;46358;2021-05-03 20:42:11:082
-3.1298;-13.0897;-5.527;46358;2021-05-03 20:42:11:082
-3.1298;-13.0897;-5.527;46358;2021-05-03 20:42:11:082
-3.1298;-13.0897;-5.527;46358;2021-05-03 20:42:11:082
-3.1298;-13.0897;-5.527;46358;2021-05-03 20:42:11:082
-3.1298;-13.0897;-5.527;46358;2021-05-03 20:42:11:082
-3.1298;-13.0897;-5.527;46359;2021-05-03 20:42:11:083
-3.1298;-13.0897;-5.527;46359;2021-05-03 20:42:11:083
-3.1298;-13.0897;-5.527;46359;2021-05-03 20:42:11:083
-3.1298;-13.0897;-5.527;46359;2021-05-03 20:42:11:083
-3.1298;-13.0897;-5.527;46359;2021-05-03 20:42:11:083
-3.1298;-13.0897;-5.527;46359;2021-05-03 20:42:11:083
-3.1298;-13.0897;-5.527;46359;2021-05-03 20:42:11:083
-3.1298;-13.0897;-5.527;46359;2021-05-03 20:42:11:083
-3.1298;-13.0897;-5.527;46359;2021-05-03 20:42:11:083
-3.1298;-13.0897;-5.527;46359;2021-05-03 20:42:11:083
-3.1298;-13.0897;-5.527;46359;2021-05-03 20:42:11:083
-3.1298;-13.0897;-5.527;46359;2021-05-03 20:42:11:083
-3.1298;-13.0897;-5.527;46359;2021-05-03 20:42:11:083
-3.1298;-13.0897;-5.527;46359;2021-05-03 20:42:11:083
0.1694;-12.6827;1.1576;46389;2021-05-03 20:42:11:113
0.1694;-12.6827;1.1576;46440;2021-05-03 20:42:11:164
0.0856;-5.9215;0.2526;46489;2021-05-03 20:42:11:213
0.0856;-5.9215;0.2526;46690;2021-05-03 20:42:11:414
0.0856;-5.9215;0.2526;46690;2021-05-03 20:42:11:414
0.0856;-5.9215;0.2526;46690;2021-05-03 20:42:11:414
0.0856;-5.9215;0.2526;46691;2021-05-03 20:42:11:415
0.0856;-5.9215;0.2526;46691;2021-05-03 20:42:11:415
0.0856;-5.9215;0.2526;46694;2021-05-03 20:42:11:418
-3.6087;-9.3787;-7.495;46745;2021-05-03 20:42:11:469
0.2819;-9.9677;1.2055;46794;2021-05-03 20:42:11:518
0.2819;-9.9677;1.2055;47017;2021-05-03 20:42:11:741
0.2819;-9.9677;1.2055;47018;2021-05-03 20:42:11:742
0.2819;-9.9677;1.2055;47018;2021-05-03 20:42:11:742
0.2819;-9.9677;1.2055;47018;2021-05-03 20:42:11:742
0.2819;-9.9677;1.2055;47018;2021-05-03 20:42:11:742
0.2819;-9.9677;1.2055;47018;2021-05-03 20:42:11:742
0.2819;-9.9677;1.2055;47018;2021-05-03 20:42:11:742
0.2819;-9.9677;1.2055;47018;2021-05-03 20:42:11:742
0.2819;-9.9677;1.2055;47018;2021-05-03 20:42:11:742
-1.1355;-10.1496;0.3747;47043;2021-05-03 20:42:11:767
-1.1355;-10.1496;0.3747;47093;2021-05-03 20:42:11:817
0.3418;-11.658;1.7921;47143;2021-05-03 20:42:11:867
0.3418;-11.658;1.7921;47363;2021-05-03 20:42:12:087
0.3418;-11.658;1.7921;47364;2021-05-03 20:42:12:088
0.3418;-11.658;1.7921;47364;2021-05-03 20:42:12:088
0.3418;-11.658;1.7921;47364;2021-05-03 20:42:12:088
0.3418;-11.658;1.7921;47365;2021-05-03 20:42:12:089
0.3418;-11.658;1.7921;47365;2021-05-03 20:42:12:089
0.3418;-11.658;1.7921;47365;2021-05-03 20:42:12:089
0.3418;-11.658;1.7921;47365;2021-05-03 20:42:12:089
0.3418;-11.658;1.7921;47365;2021-05-03 20:42:12:089
0.3418;-11.658;1.7921;47365;2021-05-03 20:42:12:089
0.3418;-11.658;1.7921;47365;2021-05-03 20:42:12:089
0.3418;-11.658;1.7921;47365;2021-05-03 20:42:12:089
0.3418;-11.658;1.7921;47366;2021-05-03 20:42:12:090
0.3418;-11.658;1.7921;47366;2021-05-03 20:42:12:090
0.3418;-11.658;1.7921;47366;2021-05-03 20:42:12:090
0.3418;-11.658;1.7921;47366;2021-05-03 20:42:12:090
0.3418;-11.658;1.7921;47366;2021-05-03 20:42:12:090
0.3418;-11.658;1.7921;47366;2021-05-03 20:42:12:090
0.3418;-11.658;1.7921;47366;2021-05-03 20:42:12:090
0.3418;-11.658;1.7921;47366;2021-05-03 20:42:12:090
0.3418;-11.658;1.7921;47368;2021-05-03 20:42:12:092
0.3418;-11.658;1.7921;47369;2021-05-03 20:42:12:093
0.3418;-11.658;1.7921;47369;2021-05-03 20:42:12:093
0.3418;-11.658;1.7921;47369;2021-05-03 20:42:12:093
0.3418;-11.658;1.7921;47369;2021-05-03 20:42:12:093
0.3418;-11.658;1.7921;47370;2021-05-03 20:42:12:094
-1.4443;-7.6285;-0.8535;47404;2021-05-03 20:42:12:128
2.0919;-7.7506;-5.448;47454;2021-05-03 20:42:12:178
2.0919;-7.7506;-5.448;47694;2021-05-03 20:42:12:418
2.0919;-7.7506;-5.448;47694;2021-05-03 20:42:12:418
2.0919;-7.7506;-5.448;47694;2021-05-03 20:42:12:418
2.0919;-7.7506;-5.448;47694;2021-05-03 20:42:12:418
2.0919;-7.7506;-5.448;47694;2021-05-03 20:42:12:418
2.0919;-7.7506;-5.448;47694;2021-05-03 20:42:12:418
2.0919;-7.7506;-5.448;47694;2021-05-03 20:42:12:418
2.0919;-7.7506;-5.448;47694;2021-05-03 20:42:12:418
2.0919;-7.7506;-5.448;47695;2021-05-03 20:42:12:419
2.0919;-7.7506;-5.448;47695;2021-05-03 20:42:12:419
2.0919;-7.7506;-5.448;47695;2021-05-03 20:42:12:419
2.0919;-7.7506;-5.448;47695;2021-05-03 20:42:12:419
2.0919;-7.7506;-5.448;47695;2021-05-03 20:42:12:419
2.0919;-7.7506;-5.448;47695;2021-05-03 20:42:12:419
-3.5823;-13.1543;-5.5366;47724;2021-05-03 20:42:12:448
-3.5823;-13.1543;-5.5366;47774;2021-05-03 20:42:12:498
-1.3797;-11.3946;1.2965;47824;2021-05-03 20:42:12:548
-1.3797;-11.3946;1.2965;48026;2021-05-03 20:42:12:750
-1.3797;-11.3946;1.2965;48027;2021-05-03 20:42:12:751
-1.3797;-11.3946;1.2965;48027;2021-05-03 20:42:12:751
-1.3797;-11.3946;1.2965;48027;2021-05-03 20:42:12:751
-1.3797;-11.3946;1.2965;48027;2021-05-03 20:42:12:751
-1.3797;-11.3946;1.2965;48027;2021-05-03 20:42:12:751
-1.3797;-11.3946;1.2965;48028;2021-05-03 20:42:12:752
-1.3797;-11.3946;1.2965;48028;2021-05-03 20:42:12:752
-1.3797;-11.3946;1.2965;48028;2021-05-03 20:42:12:752
-1.3797;-11.3946;1.2965;48028;2021-05-03 20:42:12:752
-1.3797;-11.3946;1.2965;48028;2021-05-03 20:42:12:752
-1.3797;-11.3946;1.2965;48029;2021-05-03 20:42:12:753
-1.3797;-11.3946;1.2965;48029;2021-05-03 20:42:12:753
2.9826;-13.3507;1.2797;48042;2021-05-03 20:42:12:766
2.9826;-13.3507;1.2797;48091;2021-05-03 20:42:12:815
-1.315;-9.4912;-0.2406;48142;2021-05-03 20:42:12:866
-1.315;-9.4912;-0.2406;48366;2021-05-03 20:42:13:090
-1.315;-9.4912;-0.2406;48366;2021-05-03 20:42:13:090
-1.315;-9.4912;-0.2406;48367;2021-05-03 20:42:13:091
-1.315;-9.4912;-0.2406;48367;2021-05-03 20:42:13:091
-1.315;-9.4912;-0.2406;48367;2021-05-03 20:42:13:091
-1.315;-9.4912;-0.2406;48367;2021-05-03 20:42:13:091
-1.315;-9.4912;-0.2406;48367;2021-05-03 20:42:13:091
-1.315;-9.4912;-0.2406;48367;2021-05-03 20:42:13:091
-1.315;-9.4912;-0.2406;48367;2021-05-03 20:42:13:091
-1.315;-9.4912;-0.2406;48368;2021-05-03 20:42:13:092
-1.315;-9.4912;-0.2406;48368;2021-05-03 20:42:13:092
-1.315;-9.4912;-0.2406;48368;2021-05-03 20:42:13:092
-1.315;-9.4912;-0.2406;48368;2021-05-03 20:42:13:092
-1.315;-9.4912;-0.2406;48368;2021-05-03 20:42:13:092
-1.315;-9.4912;-0.2406;48368;2021-05-03 20:42:13:092
-1.315;-9.4912;-0.2406;48368;2021-05-03 20:42:13:092
-1.315;-9.4912;-0.2406;48368;2021-05-03 20:42:13:092
-1.315;-9.4912;-0.2406;48368;2021-05-03 20:42:13:092
-1.315;-9.4912;-0.2406;48368;2021-05-03 20:42:13:092
-1.315;-9.4912;-0.2406;48368;2021-05-03 20:42:13:092
-1.315;-9.4912;-0.2406;48368;2021-05-03 20:42:13:092
-1.315;-9.4912;-0.2406;48368;2021-05-03 20:42:13:092
-1.315;-9.4912;-0.2406;48368;2021-05-03 20:42:13:092
-1.315;-9.4912;-0.2406;48368;2021-05-03 20:42:13:092
-1.315;-9.4912;-0.2406;48368;2021-05-03 20:42:13:092
-1.315;-9.4912;-0.2406;48369;2021-05-03 20:42:13:093
-1.315;-9.4912;-0.2406;48369;2021-05-03 20:42:13:093
-1.315;-9.4912;-0.2406;48369;2021-05-03 20:42:13:093
-1.315;-9.4912;-0.2406;48369;2021-05-03 20:42:13:093
-1.315;-9.4912;-0.2406;48369;2021-05-03 20:42:13:093
-1.315;-9.4912;-0.2406;48369;2021-05-03 20:42:13:093
-1.315;-9.4912;-0.2406;48369;2021-05-03 20:42:13:093
-1.315;-9.4912;-0.2406;48369;2021-05-03 20:42:13:093
-1.315;-9.4912;-0.2406;48369;2021-05-03 20:42:13:093
-1.315;-9.4912;-0.2406;48369;2021-05-03 20:42:13:093
-1.315;-9.4912;-0.2406;48369;2021-05-03 20:42:13:093
-1.315;-9.4912;-0.2406;48369;2021-05-03 20:42:13:093
-1.315;-9.4912;-0.2406;48369;2021-05-03 20:42:13:093
-1.315;-9.4912;-0.2406;48369;2021-05-03 20:42:13:093
-1.315;-9.4912;-0.2406;48369;2021-05-03 20:42:13:093
-1.315;-9.4912;-0.2406;48369;2021-05-03 20:42:13:093
-1.315;-9.4912;-0.2406;48369;2021-05-03 20:42:13:093
-1.315;-9.4912;-0.2406;48369;2021-05-03 20:42:13:093
-1.315;-9.4912;-0.2406;48369;2021-05-03 20:42:13:093
-1.315;-9.4912;-0.2406;48369;2021-05-03 20:42:13:093
-1.315;-9.4912;-0.2406;48369;2021-05-03 20:42:13:093
-1.315;-9.4912;-0.2406;48369;2021-05-03 20:42:13:093
-1.315;-9.4912;-0.2406;48369;2021-05-03 20:42:13:093
-1.315;-9.4912;-0.2406;48369;2021-05-03 20:42:13:093
-1.315;-9.4912;-0.2406;48369;2021-05-03 20:42:13:093
-1.315;-9.4912;-0.2406;48370;2021-05-03 20:42:13:094
-1.315;-9.4912;-0.2406;48370;2021-05-03 20:42:13:094
-1.315;-9.4912;-0.2406;48370;2021-05-03 20:42:13:094
-1.315;-9.4912;-0.2406;48370;2021-05-03 20:42:13:094
-1.315;-9.4912;-0.2406;48370;2021-05-03 20:42:13:094
-1.315;-9.4912;-0.2406;48370;2021-05-03 20:42:13:094
-1.315;-9.4912;-0.2406;48370;2021-05-03 20:42:13:094
-1.315;-9.4912;-0.2406;48370;2021-05-03 20:42:13:094
-1.315;-9.4912;-0.2406;48370;2021-05-03 20:42:13:094
-1.315;-9.4912;-0.2406;48370;2021-05-03 20:42:13:094
-1.315;-9.4912;-0.2406;48371;2021-05-03 20:42:13:095
-1.315;-9.4912;-0.2406;48371;2021-05-03 20:42:13:095
-1.315;-9.4912;-0.2406;48371;2021-05-03 20:42:13:095
-1.315;-9.4912;-0.2406;48371;2021-05-03 20:42:13:095
-1.315;-9.4912;-0.2406;48371;2021-05-03 20:42:13:095
-1.315;-9.4912;-0.2406;48371;2021-05-03 20:42:13:095
-1.315;-9.4912;-0.2406;48371;2021-05-03 20:42:13:095
-1.315;-9.4912;-0.2406;48371;2021-05-03 20:42:13:095
-1.315;-9.4912;-0.2406;48371;2021-05-03 20:42:13:095
-1.315;-9.4912;-0.2406;48371;2021-05-03 20:42:13:095
-1.315;-9.4912;-0.2406;48371;2021-05-03 20:42:13:095
-1.315;-9.4912;-0.2406;48371;2021-05-03 20:42:13:095
-1.315;-9.4912;-0.2406;48371;2021-05-03 20:42:13:095
-1.315;-9.4912;-0.2406;48372;2021-05-03 20:42:13:096
0.4591;-9.666;-0.8607;48423;2021-05-03 20:42:13:147
-0.9798;-10.583;-1.6221;48472;2021-05-03 20:42:13:196
-0.9798;-10.583;-1.6221;48688;2021-05-03 20:42:13:412
-0.9798;-10.583;-1.6221;48688;2021-05-03 20:42:13:412
-0.9798;-10.583;-1.6221;48688;2021-05-03 20:42:13:412
-0.9798;-10.583;-1.6221;48688;2021-05-03 20:42:13:412
-0.9798;-10.583;-1.6221;48688;2021-05-03 20:42:13:412
-1.7939;-10.7961;-1.0139;48703;2021-05-03 20:42:13:427
-1.7939;-10.7961;-1.0139;48754;2021-05-03 20:42:13:478
0.3609;-6.7092;0.5279;48803;2021-05-03 20:42:13:527
0.3609;-6.7092;0.5279;48853;2021-05-03 20:42:13:577
-1.6718;-8.4785;-7.6195;48903;2021-05-03 20:42:13:627
-1.6718;-8.4785;-7.6195;49081;2021-05-03 20:42:13:805
-1.6718;-8.4785;-7.6195;49081;2021-05-03 20:42:13:805
-1.6718;-8.4785;-7.6195;49082;2021-05-03 20:42:13:806
-1.6718;-8.4785;-7.6195;49082;2021-05-03 20:42:13:806
-1.6718;-8.4785;-7.6195;49082;2021-05-03 20:42:13:806
-1.6718;-8.4785;-7.6195;49082;2021-05-03 20:42:13:806
-1.6718;-8.4785;-7.6195;49082;2021-05-03 20:42:13:806
-1.6718;-8.4785;-7.6195;49084;2021-05-03 20:42:13:808
-1.6718;-8.4785;-7.6195;49084;2021-05-03 20:42:13:808
-1.6718;-8.4785;-7.6195;49084;2021-05-03 20:42:13:808
-1.6718;-8.4785;-7.6195;49084;2021-05-03 20:42:13:808
-1.6718;-8.4785;-7.6195;49085;2021-05-03 20:42:13:809
-1.6718;-8.4785;-7.6195;49085;2021-05-03 20:42:13:809
-1.6718;-8.4785;-7.6195;49085;2021-05-03 20:42:13:809
-1.6718;-8.4785;-7.6195;49085;2021-05-03 20:42:13:809
-1.6718;-8.4785;-7.6195;49085;2021-05-03 20:42:13:809
-1.6718;-8.4785;-7.6195;49085;2021-05-03 20:42:13:809
-1.6718;-8.4785;-7.6195;49086;2021-05-03 20:42:13:810
-1.7125;-12.7449;-6.626;49113;2021-05-03 20:42:13:837
-1.7125;-12.7449;-6.626;49163;2021-05-03 20:42:13:887
-0.6734;-7.4921;-1.3491;49213;2021-05-03 20:42:13:937
-0.6734;-7.4921;-1.3491;49430;2021-05-03 20:42:14:154
-0.6734;-7.4921;-1.3491;49430;2021-05-03 20:42:14:154
-0.6734;-7.4921;-1.3491;49430;2021-05-03 20:42:14:154
-0.6734;-7.4921;-1.3491;49430;2021-05-03 20:42:14:154
-0.6734;-7.4921;-1.3491;49430;2021-05-03 20:42:14:154
-0.6734;-7.4921;-1.3491;49430;2021-05-03 20:42:14:154
-0.6734;-7.4921;-1.3491;49430;2021-05-03 20:42:14:154
-0.6734;-7.4921;-1.3491;49431;2021-05-03 20:42:14:155
-0.6734;-7.4921;-1.3491;49431;2021-05-03 20:42:14:155
-0.6734;-7.4921;-1.3491;49431;2021-05-03 20:42:14:155
-0.6734;-7.4921;-1.3491;49431;2021-05-03 20:42:14:155
-0.6734;-7.4921;-1.3491;49431;2021-05-03 20:42:14:155
-0.6734;-7.4921;-1.3491;49431;2021-05-03 20:42:14:155
-0.6734;-7.4921;-1.3491;49431;2021-05-03 20:42:14:155
1.7998;-8.0308;-2.9173;49442;2021-05-03 20:42:14:166
1.7998;-8.0308;-2.9173;49491;2021-05-03 20:42:14:215
0.7464;-9.9916;-9.0633;49542;2021-05-03 20:42:14:266
0.7464;-9.9916;-9.0633;49713;2021-05-03 20:42:14:437
0.7464;-9.9916;-9.0633;49714;2021-05-03 20:42:14:438
0.7464;-9.9916;-9.0633;49714;2021-05-03 20:42:14:438
0.7464;-9.9916;-9.0633;49715;2021-05-03 20:42:14:439
0.7464;-9.9916;-9.0633;49715;2021-05-03 20:42:14:439
0.7464;-9.9916;-9.0633;49715;2021-05-03 20:42:14:439
0.7464;-9.9916;-9.0633;49715;2021-05-03 20:42:14:439
0.7464;-9.9916;-9.0633;49715;2021-05-03 20:42:14:439
0.7464;-9.9916;-9.0633;49716;2021-05-03 20:42:14:440
0.7464;-9.9916;-9.0633;49716;2021-05-03 20:42:14:440
0.7464;-9.9916;-9.0633;49716;2021-05-03 20:42:14:440
0.7464;-9.9916;-9.0633;49716;2021-05-03 20:42:14:440
0.7464;-9.9916;-9.0633;49716;2021-05-03 20:42:14:440
0.7464;-9.9916;-9.0633;49717;2021-05-03 20:42:14:441
0.7464;-9.9916;-9.0633;49717;2021-05-03 20:42:14:441
0.7464;-9.9916;-9.0633;49717;2021-05-03 20:42:14:441
0.7464;-9.9916;-9.0633;49717;2021-05-03 20:42:14:441
0.7464;-9.9916;-9.0633;49717;2021-05-03 20:42:14:441
0.7464;-9.9916;-9.0633;49717;2021-05-03 20:42:14:441
0.7464;-9.9916;-9.0633;49717;2021-05-03 20:42:14:441
0.7464;-9.9916;-9.0633;49718;2021-05-03 20:42:14:442
0.7464;-9.9916;-9.0633;49718;2021-05-03 20:42:14:442
0.7464;-9.9916;-9.0633;49718;2021-05-03 20:42:14:442
0.7464;-9.9916;-9.0633;49718;2021-05-03 20:42:14:442
0.7464;-9.9916;-9.0633;49718;2021-05-03 20:42:14:442
0.7464;-9.9916;-9.0633;49718;2021-05-03 20:42:14:442
0.7464;-9.9916;-9.0633;49718;2021-05-03 20:42:14:442
0.7464;-9.9916;-9.0633;49718;2021-05-03 20:42:14:442
0.7464;-9.9916;-9.0633;49719;2021-05-03 20:42:14:443
0.7464;-9.9916;-9.0633;49719;2021-05-03 20:42:14:443
0.7464;-9.9916;-9.0633;49719;2021-05-03 20:42:14:443
0.7464;-9.9916;-9.0633;49719;2021-05-03 20:42:14:443
0.7464;-9.9916;-9.0633;49719;2021-05-03 20:42:14:443
0.7464;-9.9916;-9.0633;49719;2021-05-03 20:42:14:443
0.7464;-9.9916;-9.0633;49719;2021-05-03 20:42:14:443
0.7464;-9.9916;-9.0633;49719;2021-05-03 20:42:14:443
3.878;-16.3793;1.4617;49722;2021-05-03 20:42:14:446
3.878;-16.3793;1.4617;49722;2021-05-03 20:42:14:446
3.878;-16.3793;1.4617;49722;2021-05-03 20:42:14:446
3.878;-16.3793;1.4617;49722;2021-05-03 20:42:14:446
3.878;-16.3793;1.4617;49722;2021-05-03 20:42:14:446
3.878;-16.3793;1.4617;49722;2021-05-03 20:42:14:446
3.878;-16.3793;1.4617;49722;2021-05-03 20:42:14:446
3.878;-16.3793;1.4617;49722;2021-05-03 20:42:14:446
3.878;-16.3793;1.4617;49722;2021-05-03 20:42:14:446
3.878;-16.3793;1.4617;49722;2021-05-03 20:42:14:446
3.878;-16.3793;1.4617;49722;2021-05-03 20:42:14:446
3.878;-16.3793;1.4617;49722;2021-05-03 20:42:14:446
3.878;-16.3793;1.4617;49722;2021-05-03 20:42:14:446
3.878;-16.3793;1.4617;49722;2021-05-03 20:42:14:446
3.878;-16.3793;1.4617;49723;2021-05-03 20:42:14:447
3.878;-16.3793;1.4617;49730;2021-05-03 20:42:14:454
3.878;-16.3793;1.4617;49779;2021-05-03 20:42:14:503
0.0688;-6.6325;-0.7721;49829;2021-05-03 20:42:14:553
0.0688;-6.6325;-0.7721;50066;2021-05-03 20:42:14:790
0.0688;-6.6325;-0.7721;50067;2021-05-03 20:42:14:791
0.0688;-6.6325;-0.7721;50067;2021-05-03 20:42:14:791
0.0688;-6.6325;-0.7721;50067;2021-05-03 20:42:14:791
0.0688;-6.6325;-0.7721;50067;2021-05-03 20:42:14:791
0.0688;-6.6325;-0.7721;50067;2021-05-03 20:42:14:791
0.0688;-6.6325;-0.7721;50067;2021-05-03 20:42:14:791
0.0688;-6.6325;-0.7721;50067;2021-05-03 20:42:14:791
0.0688;-6.6325;-0.7721;50067;2021-05-03 20:42:14:791
0.0688;-6.6325;-0.7721;50067;2021-05-03 20:42:14:791
0.0688;-6.6325;-0.7721;50067;2021-05-03 20:42:14:791
0.0688;-6.6325;-0.7721;50067;2021-05-03 20:42:14:791
0.0688;-6.6325;-0.7721;50067;2021-05-03 20:42:14:791
0.0688;-6.6325;-0.7721;50067;2021-05-03 20:42:14:791
0.0688;-6.6325;-0.7721;50067;2021-05-03 20:42:14:791
0.0688;-6.6325;-0.7721;50067;2021-05-03 20:42:14:791
0.0688;-6.6325;-0.7721;50067;2021-05-03 20:42:14:791
0.0688;-6.6325;-0.7721;50067;2021-05-03 20:42:14:791
0.0688;-6.6325;-0.7721;50067;2021-05-03 20:42:14:791
0.0688;-6.6325;-0.7721;50067;2021-05-03 20:42:14:791
0.0688;-6.6325;-0.7721;50067;2021-05-03 20:42:14:791
0.0688;-6.6325;-0.7721;50067;2021-05-03 20:42:14:791
0.0688;-6.6325;-0.7721;50067;2021-05-03 20:42:14:791
0.0688;-6.6325;-0.7721;50067;2021-05-03 20:42:14:791
0.0688;-6.6325;-0.7721;50067;2021-05-03 20:42:14:791
0.0688;-6.6325;-0.7721;50067;2021-05-03 20:42:14:791
0.0688;-6.6325;-0.7721;50068;2021-05-03 20:42:14:792
0.0688;-6.6325;-0.7721;50068;2021-05-03 20:42:14:792
0.0688;-6.6325;-0.7721;50068;2021-05-03 20:42:14:792
0.0688;-6.6325;-0.7721;50068;2021-05-03 20:42:14:792
0.0688;-6.6325;-0.7721;50068;2021-05-03 20:42:14:792
0.0688;-6.6325;-0.7721;50068;2021-05-03 20:42:14:792
0.0688;-6.6325;-0.7721;50068;2021-05-03 20:42:14:792
0.0688;-6.6325;-0.7721;50068;2021-05-03 20:42:14:792
0.0688;-6.6325;-0.7721;50068;2021-05-03 20:42:14:792
0.0688;-6.6325;-0.7721;50068;2021-05-03 20:42:14:792
0.0688;-6.6325;-0.7721;50068;2021-05-03 20:42:14:792
0.0688;-6.6325;-0.7721;50068;2021-05-03 20:42:14:792
0.0688;-6.6325;-0.7721;50068;2021-05-03 20:42:14:792
0.0688;-6.6325;-0.7721;50068;2021-05-03 20:42:14:792
0.0688;-6.6325;-0.7721;50068;2021-05-03 20:42:14:792
0.0688;-6.6325;-0.7721;50068;2021-05-03 20:42:14:792
0.0688;-6.6325;-0.7721;50068;2021-05-03 20:42:14:792
0.0688;-6.6325;-0.7721;50068;2021-05-03 20:42:14:792
0.0688;-6.6325;-0.7721;50068;2021-05-03 20:42:14:792
0.0688;-6.6325;-0.7721;50068;2021-05-03 20:42:14:792
0.0688;-6.6325;-0.7721;50068;2021-05-03 20:42:14:792
0.0688;-6.6325;-0.7721;50068;2021-05-03 20:42:14:792
0.0688;-6.6325;-0.7721;50068;2021-05-03 20:42:14:792
0.0688;-6.6325;-0.7721;50068;2021-05-03 20:42:14:792
0.0688;-6.6325;-0.7721;50068;2021-05-03 20:42:14:792
0.0688;-6.6325;-0.7721;50068;2021-05-03 20:42:14:792
0.0688;-6.6325;-0.7721;50068;2021-05-03 20:42:14:792
0.0688;-6.6325;-0.7721;50068;2021-05-03 20:42:14:792
0.0688;-6.6325;-0.7721;50068;2021-05-03 20:42:14:792
0.0688;-6.6325;-0.7721;50068;2021-05-03 20:42:14:792
0.0688;-6.6325;-0.7721;50068;2021-05-03 20:42:14:792
0.0688;-6.6325;-0.7721;50069;2021-05-03 20:42:14:793
0.0688;-6.6325;-0.7721;50069;2021-05-03 20:42:14:793
0.0688;-6.6325;-0.7721;50069;2021-05-03 20:42:14:793
0.0688;-6.6325;-0.7721;50069;2021-05-03 20:42:14:793
0.0688;-6.6325;-0.7721;50069;2021-05-03 20:42:14:793
0.0688;-6.6325;-0.7721;50069;2021-05-03 20:42:14:793
0.0688;-6.6325;-0.7721;50069;2021-05-03 20:42:14:793
0.0688;-6.6325;-0.7721;50069;2021-05-03 20:42:14:793
0.0688;-6.6325;-0.7721;50069;2021-05-03 20:42:14:793
0.0688;-6.6325;-0.7721;50069;2021-05-03 20:42:14:793
0.0688;-6.6325;-0.7721;50069;2021-05-03 20:42:14:793
0.0688;-6.6325;-0.7721;50069;2021-05-03 20:42:14:793
0.0688;-6.6325;-0.7721;50069;2021-05-03 20:42:14:793
0.0688;-6.6325;-0.7721;50069;2021-05-03 20:42:14:793
0.0688;-6.6325;-0.7721;50069;2021-05-03 20:42:14:793
0.0688;-6.6325;-0.7721;50069;2021-05-03 20:42:14:793
0.0688;-6.6325;-0.7721;50069;2021-05-03 20:42:14:793
0.0688;-6.6325;-0.7721;50069;2021-05-03 20:42:14:793
0.0688;-6.6325;-0.7721;50069;2021-05-03 20:42:14:793
0.0688;-6.6325;-0.7721;50069;2021-05-03 20:42:14:793
0.0688;-6.6325;-0.7721;50069;2021-05-03 20:42:14:793
0.0688;-6.6325;-0.7721;50069;2021-05-03 20:42:14:793
0.0688;-6.6325;-0.7721;50069;2021-05-03 20:42:14:793
0.0688;-6.6325;-0.7721;50069;2021-05-03 20:42:14:793
0.0688;-6.6325;-0.7721;50069;2021-05-03 20:42:14:793
0.0688;-6.6325;-0.7721;50070;2021-05-03 20:42:14:794
0.0688;-6.6325;-0.7721;50070;2021-05-03 20:42:14:794
0.0688;-6.6325;-0.7721;50070;2021-05-03 20:42:14:794
0.0688;-6.6325;-0.7721;50070;2021-05-03 20:42:14:794
0.0688;-6.6325;-0.7721;50070;2021-05-03 20:42:14:794
0.0688;-6.6325;-0.7721;50070;2021-05-03 20:42:14:794
0.0688;-6.6325;-0.7721;50070;2021-05-03 20:42:14:794
0.0688;-6.6325;-0.7721;50070;2021-05-03 20:42:14:794
0.0688;-6.6325;-0.7721;50070;2021-05-03 20:42:14:794
0.0688;-6.6325;-0.7721;50070;2021-05-03 20:42:14:794
0.0688;-6.6325;-0.7721;50070;2021-05-03 20:42:14:794
0.0688;-6.6325;-0.7721;50070;2021-05-03 20:42:14:794
0.0688;-6.6325;-0.7721;50070;2021-05-03 20:42:14:794
0.0688;-6.6325;-0.7721;50070;2021-05-03 20:42:14:794
0.0688;-6.6325;-0.7721;50070;2021-05-03 20:42:14:794
0.0688;-6.6325;-0.7721;50070;2021-05-03 20:42:14:794
0.0688;-6.6325;-0.7721;50070;2021-05-03 20:42:14:794
0.0688;-6.6325;-0.7721;50070;2021-05-03 20:42:14:794
0.0688;-6.6325;-0.7721;50071;2021-05-03 20:42:14:795
0.0688;-6.6325;-0.7721;50071;2021-05-03 20:42:14:795
0.0688;-6.6325;-0.7721;50071;2021-05-03 20:42:14:795
0.0688;-6.6325;-0.7721;50071;2021-05-03 20:42:14:795
0.0688;-6.6325;-0.7721;50071;2021-05-03 20:42:14:795
0.0688;-6.6325;-0.7721;50071;2021-05-03 20:42:14:795
0.0688;-6.6325;-0.7721;50071;2021-05-03 20:42:14:795
0.0688;-6.6325;-0.7721;50071;2021-05-03 20:42:14:795
0.0688;-6.6325;-0.7721;50071;2021-05-03 20:42:14:795
0.0688;-6.6325;-0.7721;50071;2021-05-03 20:42:14:795
0.0688;-6.6325;-0.7721;50071;2021-05-03 20:42:14:795
0.0688;-6.6325;-0.7721;50071;2021-05-03 20:42:14:795
0.0688;-6.6325;-0.7721;50071;2021-05-03 20:42:14:795
0.0688;-6.6325;-0.7721;50071;2021-05-03 20:42:14:795
0.0688;-6.6325;-0.7721;50071;2021-05-03 20:42:14:795
0.0688;-6.6325;-0.7721;50071;2021-05-03 20:42:14:795
0.0688;-6.6325;-0.7721;50071;2021-05-03 20:42:14:795
1.8358;-8.8089;-7.258;50113;2021-05-03 20:42:14:837
0.6003;-6.6732;0.0467;50163;2021-05-03 20:42:14:887
0.6003;-6.6732;0.0467;50213;2021-05-03 20:42:14:937
-1.9974;-12.0027;-9.6546;50263;2021-05-03 20:42:14:987
-1.9974;-12.0027;-9.6546;50313;2021-05-03 20:42:15:037
-4.9925;-10.5997;-3.7649;50364;2021-05-03 20:42:15:088
-4.9925;-10.5997;-3.7649;50413;2021-05-03 20:42:15:137
2.293;-11.4018;0.6117;50598;2021-05-03 20:42:15:322
2.293;-11.4018;0.6117;50599;2021-05-03 20:42:15:323
2.293;-11.4018;0.6117;50599;2021-05-03 20:42:15:323
2.293;-11.4018;0.6117;50599;2021-05-03 20:42:15:323
2.293;-11.4018;0.6117;50599;2021-05-03 20:42:15:323
2.293;-11.4018;0.6117;50599;2021-05-03 20:42:15:323
2.293;-11.4018;0.6117;50599;2021-05-03 20:42:15:323
2.293;-11.4018;0.6117;50600;2021-05-03 20:42:15:324
2.293;-11.4018;0.6117;50600;2021-05-03 20:42:15:324
2.293;-11.4018;0.6117;50600;2021-05-03 20:42:15:324
2.293;-11.4018;0.6117;50600;2021-05-03 20:42:15:324
2.293;-11.4018;0.6117;50600;2021-05-03 20:42:15:324
2.293;-11.4018;0.6117;50600;2021-05-03 20:42:15:324
2.293;-11.4018;0.6117;50600;2021-05-03 20:42:15:324
1.1343;-10.5399;1.4042;50648;2021-05-03 20:42:15:372
1.1343;-10.5399;1.4042;50698;2021-05-03 20:42:15:422
0.4687;-6.5272;-2.5079;50748;2021-05-03 20:42:15:472
0.4687;-6.5272;-2.5079;50798;2021-05-03 20:42:15:522
1.072;-6.7403;-0.346;51043;2021-05-03 20:42:15:767
1.072;-6.7403;-0.346;51043;2021-05-03 20:42:15:767
1.072;-6.7403;-0.346;51044;2021-05-03 20:42:15:768
1.072;-6.7403;-0.346;51044;2021-05-03 20:42:15:768
1.072;-6.7403;-0.346;51044;2021-05-03 20:42:15:768
1.072;-6.7403;-0.346;51044;2021-05-03 20:42:15:768
1.072;-6.7403;-0.346;51044;2021-05-03 20:42:15:768
1.072;-6.7403;-0.346;51044;2021-05-03 20:42:15:768
1.072;-6.7403;-0.346;51044;2021-05-03 20:42:15:768
1.072;-6.7403;-0.346;51045;2021-05-03 20:42:15:769
1.072;-6.7403;-0.346;51045;2021-05-03 20:42:15:769
1.072;-6.7403;-0.346;51045;2021-05-03 20:42:15:769
1.072;-6.7403;-0.346;51045;2021-05-03 20:42:15:769
1.072;-6.7403;-0.346;51045;2021-05-03 20:42:15:769
1.072;-6.7403;-0.346;51045;2021-05-03 20:42:15:769
1.072;-6.7403;-0.346;51045;2021-05-03 20:42:15:769
1.072;-6.7403;-0.346;51046;2021-05-03 20:42:15:770
1.072;-6.7403;-0.346;51046;2021-05-03 20:42:15:770
1.072;-6.7403;-0.346;51046;2021-05-03 20:42:15:770
1.072;-6.7403;-0.346;51046;2021-05-03 20:42:15:770
1.072;-6.7403;-0.346;51046;2021-05-03 20:42:15:770
1.072;-6.7403;-0.346;51046;2021-05-03 20:42:15:770
1.072;-6.7403;-0.346;51046;2021-05-03 20:42:15:770
1.072;-6.7403;-0.346;51046;2021-05-03 20:42:15:770
1.072;-6.7403;-0.346;51047;2021-05-03 20:42:15:771
1.072;-6.7403;-0.346;51047;2021-05-03 20:42:15:771
-2.0979;-9.4673;-6.8462;51073;2021-05-03 20:42:15:797
-2.0979;-9.4673;-6.8462;51123;2021-05-03 20:42:15:847
-0.9703;-11.3539;-1.7418;51173;2021-05-03 20:42:15:897
-0.9703;-11.3539;-1.7418;51224;2021-05-03 20:42:15:948
1.8788;-7.8895;1.3036;51273;2021-05-03 20:42:15:997
1.8788;-7.8895;1.3036;51468;2021-05-03 20:42:16:192
1.8788;-7.8895;1.3036;51468;2021-05-03 20:42:16:192
1.8788;-7.8895;1.3036;51469;2021-05-03 20:42:16:193
1.8788;-7.8895;1.3036;51473;2021-05-03 20:42:16:197
0.7919;-8.0738;0.3747;51523;2021-05-03 20:42:16:247
-0.9655;-9.7306;-0.1856;51573;2021-05-03 20:42:16:297
-0.9655;-9.7306;-0.1856;51623;2021-05-03 20:42:16:347
-2.9479;-11.5335;-2.7761;51673;2021-05-03 20:42:16:397
-2.9479;-11.5335;-2.7761;51723;2021-05-03 20:42:16:447
-0.252;-11.7082;-3.6164;51773;2021-05-03 20:42:16:497
-0.252;-11.7082;-3.6164;51823;2021-05-03 20:42:16:547
1.4647;-14.5382;0.7434;51873;2021-05-03 20:42:16:597
1.4647;-14.5382;0.7434;51924;2021-05-03 20:42:16:648
2.8581;-7.753;0.4657;51973;2021-05-03 20:42:16:697
2.8581;-7.753;0.4657;52023;2021-05-03 20:42:16:747
1.4766;-5.1984;0.3292;52073;2021-05-03 20:42:16:797
1.4766;-5.1984;0.3292;52123;2021-05-03 20:42:16:847
-1.6837;-8.9334;-5.7449;52173;2021-05-03 20:42:16:897
-1.6837;-8.9334;-5.7449;52224;2021-05-03 20:42:16:948
-4.9494;-13.7768;-5.5079;52273;2021-05-03 20:42:16:997
-4.9494;-13.7768;-5.5079;52323;2021-05-03 20:42:17:047
1.6945;-9.8264;1.6005;52373;2021-05-03 20:42:17:097
1.6945;-9.8264;1.6005;52424;2021-05-03 20:42:17:148
2.6594;-9.6277;0.8535;52473;2021-05-03 20:42:17:197
2.6594;-9.6277;0.8535;52523;2021-05-03 20:42:17:247
1.2899;-9.1177;0.3603;52573;2021-05-03 20:42:17:297
1.2899;-9.1177;0.3603;52624;2021-05-03 20:42:17:348
-1.1666;-10.3292;0.9541;52673;2021-05-03 20:42:17:397
-1.1666;-10.3292;0.9541;52723;2021-05-03 20:42:17:447
-2.311;-9.666;0.5638;52773;2021-05-03 20:42:17:497
-2.311;-9.666;0.5638;52824;2021-05-03 20:42:17:548
-1.8968;-11.6963;-0.0874;52873;2021-05-03 20:42:17:597
-1.8968;-11.6963;-0.0874;52923;2021-05-03 20:42:17:647
2.0919;-12.2972;3.4465;52973;2021-05-03 20:42:17:697
2.0919;-12.2972;3.4465;53023;2021-05-03 20:42:17:747
2.712;-13.0107;1.2725;53073;2021-05-03 20:42:17:797
2.712;-13.0107;1.2725;53123;2021-05-03 20:42:17:847
3.9355;-4.9781;-2.7473;53173;2021-05-03 20:42:17:897
3.9355;-4.9781;-2.7473;53223;2021-05-03 20:42:17:947
-0.8601;-6.046;0.8248;53273;2021-05-03 20:42:17:997
-0.8601;-6.046;0.8248;53323;2021-05-03 20:42:18:047
-5.05;-13.4273;-6.7648;53373;2021-05-03 20:42:18:097
-5.05;-13.4273;-6.7648;53632;2021-05-03 20:42:18:356
-5.05;-13.4273;-6.7648;53633;2021-05-03 20:42:18:357
-5.05;-13.4273;-6.7648;53633;2021-05-03 20:42:18:357
-5.05;-13.4273;-6.7648;53633;2021-05-03 20:42:18:357
-5.05;-13.4273;-6.7648;53633;2021-05-03 20:42:18:357
-5.05;-13.4273;-6.7648;53633;2021-05-03 20:42:18:357
-5.05;-13.4273;-6.7648;53633;2021-05-03 20:42:18:357
-5.05;-13.4273;-6.7648;53633;2021-05-03 20:42:18:357
-5.05;-13.4273;-6.7648;53634;2021-05-03 20:42:18:358
-5.05;-13.4273;-6.7648;53634;2021-05-03 20:42:18:358
-5.05;-13.4273;-6.7648;53634;2021-05-03 20:42:18:358
-5.05;-13.4273;-6.7648;53634;2021-05-03 20:42:18:358
-5.05;-13.4273;-6.7648;53634;2021-05-03 20:42:18:358
-5.05;-13.4273;-6.7648;53634;2021-05-03 20:42:18:358
-5.05;-13.4273;-6.7648;53634;2021-05-03 20:42:18:358
-5.05;-13.4273;-6.7648;53634;2021-05-03 20:42:18:358
-5.05;-13.4273;-6.7648;53635;2021-05-03 20:42:18:359
-5.05;-13.4273;-6.7648;53635;2021-05-03 20:42:18:359
-5.05;-13.4273;-6.7648;53635;2021-05-03 20:42:18:359
-5.05;-13.4273;-6.7648;53635;2021-05-03 20:42:18:359
-5.05;-13.4273;-6.7648;53635;2021-05-03 20:42:18:359
-5.05;-13.4273;-6.7648;53635;2021-05-03 20:42:18:359
-5.05;-13.4273;-6.7648;53635;2021-05-03 20:42:18:359
-5.05;-13.4273;-6.7648;53636;2021-05-03 20:42:18:360
-5.05;-13.4273;-6.7648;53636;2021-05-03 20:42:18:360
-5.05;-13.4273;-6.7648;53636;2021-05-03 20:42:18:360
-5.05;-13.4273;-6.7648;53636;2021-05-03 20:42:18:360
-5.05;-13.4273;-6.7648;53637;2021-05-03 20:42:18:361
-5.05;-13.4273;-6.7648;53637;2021-05-03 20:42:18:361
-5.05;-13.4273;-6.7648;53637;2021-05-03 20:42:18:361
-5.05;-13.4273;-6.7648;53637;2021-05-03 20:42:18:361
-5.05;-13.4273;-6.7648;53637;2021-05-03 20:42:18:361
-5.05;-13.4273;-6.7648;53637;2021-05-03 20:42:18:361
-5.05;-13.4273;-6.7648;53638;2021-05-03 20:42:18:362
-5.05;-13.4273;-6.7648;53638;2021-05-03 20:42:18:362
-5.05;-13.4273;-6.7648;53638;2021-05-03 20:42:18:362
-5.05;-13.4273;-6.7648;53638;2021-05-03 20:42:18:362
-5.05;-13.4273;-6.7648;53638;2021-05-03 20:42:18:362
-5.05;-13.4273;-6.7648;53638;2021-05-03 20:42:18:362
-5.05;-13.4273;-6.7648;53638;2021-05-03 20:42:18:362
-5.05;-13.4273;-6.7648;53638;2021-05-03 20:42:18:362
-5.05;-13.4273;-6.7648;53638;2021-05-03 20:42:18:362
-5.05;-13.4273;-6.7648;53639;2021-05-03 20:42:18:363
-5.05;-13.4273;-6.7648;53639;2021-05-03 20:42:18:363
-5.05;-13.4273;-6.7648;53639;2021-05-03 20:42:18:363
-5.05;-13.4273;-6.7648;53639;2021-05-03 20:42:18:363
-5.05;-13.4273;-6.7648;53639;2021-05-03 20:42:18:363
-5.05;-13.4273;-6.7648;53639;2021-05-03 20:42:18:363
-5.05;-13.4273;-6.7648;53639;2021-05-03 20:42:18:363
-5.05;-13.4273;-6.7648;53639;2021-05-03 20:42:18:363
-5.05;-13.4273;-6.7648;53640;2021-05-03 20:42:18:364
-5.05;-13.4273;-6.7648;53640;2021-05-03 20:42:18:364
-5.05;-13.4273;-6.7648;53640;2021-05-03 20:42:18:364
-5.05;-13.4273;-6.7648;53640;2021-05-03 20:42:18:364
-5.05;-13.4273;-6.7648;53640;2021-05-03 20:42:18:364
-5.05;-13.4273;-6.7648;53640;2021-05-03 20:42:18:364
-5.05;-13.4273;-6.7648;53640;2021-05-03 20:42:18:364
-5.05;-13.4273;-6.7648;53640;2021-05-03 20:42:18:364
-5.05;-13.4273;-6.7648;53640;2021-05-03 20:42:18:364
-5.05;-13.4273;-6.7648;53640;2021-05-03 20:42:18:364
-5.05;-13.4273;-6.7648;53640;2021-05-03 20:42:18:364
-5.05;-13.4273;-6.7648;53640;2021-05-03 20:42:18:364
-5.05;-13.4273;-6.7648;53640;2021-05-03 20:42:18:364
-5.05;-13.4273;-6.7648;53640;2021-05-03 20:42:18:364
1.1726;-9.8767;1.895;53663;2021-05-03 20:42:18:387
1.1726;-9.8767;1.895;53713;2021-05-03 20:42:18:437
0.5118;-7.0994;-0.7626;53764;2021-05-03 20:42:18:488
0.5118;-7.0994;-0.7626;53814;2021-05-03 20:42:18:538
0.5118;-7.0994;-0.7626;53989;2021-05-03 20:42:18:713
0.5118;-7.0994;-0.7626;53989;2021-05-03 20:42:18:713
0.5118;-7.0994;-0.7626;53989;2021-05-03 20:42:18:713
0.5118;-7.0994;-0.7626;53990;2021-05-03 20:42:18:714
0.5118;-7.0994;-0.7626;53990;2021-05-03 20:42:18:714
0.5118;-7.0994;-0.7626;53990;2021-05-03 20:42:18:714
0.5118;-7.0994;-0.7626;53990;2021-05-03 20:42:18:714
0.5118;-7.0994;-0.7626;53990;2021-05-03 20:42:18:714
0.5118;-7.0994;-0.7626;53990;2021-05-03 20:42:18:714
0.5118;-7.0994;-0.7626;53990;2021-05-03 20:42:18:714
0.5118;-7.0994;-0.7626;53990;2021-05-03 20:42:18:714
0.5118;-7.0994;-0.7626;53991;2021-05-03 20:42:18:715
-0.3502;-9.2877;-5.1751;53999;2021-05-03 20:42:18:723
-0.3502;-9.2877;-5.1751;54049;2021-05-03 20:42:18:773
-2.4858;-12.405;-4.1432;54099;2021-05-03 20:42:18:823
-2.4858;-12.405;-4.1432;54149;2021-05-03 20:42:18:873
-2.4858;-12.405;-4.1432;54380;2021-05-03 20:42:19:104
-2.4858;-12.405;-4.1432;54381;2021-05-03 20:42:19:105
-2.4858;-12.405;-4.1432;54381;2021-05-03 20:42:19:105
-2.4858;-12.405;-4.1432;54381;2021-05-03 20:42:19:105
-2.4858;-12.405;-4.1432;54381;2021-05-03 20:42:19:105
-2.4858;-12.405;-4.1432;54382;2021-05-03 20:42:19:106
-2.4858;-12.405;-4.1432;54382;2021-05-03 20:42:19:106
-2.4858;-12.405;-4.1432;54382;2021-05-03 20:42:19:106
-2.4858;-12.405;-4.1432;54382;2021-05-03 20:42:19:106
-2.4858;-12.405;-4.1432;54382;2021-05-03 20:42:19:106
-2.4858;-12.405;-4.1432;54382;2021-05-03 20:42:19:106
-2.4858;-12.405;-4.1432;54382;2021-05-03 20:42:19:106
-2.4858;-12.405;-4.1432;54382;2021-05-03 20:42:19:106
-2.4858;-12.405;-4.1432;54383;2021-05-03 20:42:19:107
-2.4858;-12.405;-4.1432;54383;2021-05-03 20:42:19:107
-2.4858;-12.405;-4.1432;54383;2021-05-03 20:42:19:107
-2.4858;-12.405;-4.1432;54383;2021-05-03 20:42:19:107
-2.4858;-12.405;-4.1432;54383;2021-05-03 20:42:19:107
-2.4858;-12.405;-4.1432;54383;2021-05-03 20:42:19:107
-2.4858;-12.405;-4.1432;54383;2021-05-03 20:42:19:107
-2.4858;-12.405;-4.1432;54383;2021-05-03 20:42:19:107
-2.4858;-12.405;-4.1432;54384;2021-05-03 20:42:19:108
-2.4858;-12.405;-4.1432;54384;2021-05-03 20:42:19:108
-2.4858;-12.405;-4.1432;54384;2021-05-03 20:42:19:108
-2.4858;-12.405;-4.1432;54384;2021-05-03 20:42:19:108
-2.4858;-12.405;-4.1432;54384;2021-05-03 20:42:19:108
-2.4858;-12.405;-4.1432;54384;2021-05-03 20:42:19:108
-2.4858;-12.405;-4.1432;54384;2021-05-03 20:42:19:108
-2.4858;-12.405;-4.1432;54384;2021-05-03 20:42:19:108
-2.4858;-12.405;-4.1432;54384;2021-05-03 20:42:19:108
-2.4858;-12.405;-4.1432;54384;2021-05-03 20:42:19:108
-2.4858;-12.405;-4.1432;54385;2021-05-03 20:42:19:109
-2.4858;-12.405;-4.1432;54385;2021-05-03 20:42:19:109
-2.4858;-12.405;-4.1432;54385;2021-05-03 20:42:19:109
-2.4858;-12.405;-4.1432;54385;2021-05-03 20:42:19:109
-2.4858;-12.405;-4.1432;54385;2021-05-03 20:42:19:109
-2.4858;-12.405;-4.1432;54385;2021-05-03 20:42:19:109
-2.4858;-12.405;-4.1432;54385;2021-05-03 20:42:19:109
-2.4858;-12.405;-4.1432;54385;2021-05-03 20:42:19:109
-2.4858;-12.405;-4.1432;54385;2021-05-03 20:42:19:109
-2.4858;-12.405;-4.1432;54385;2021-05-03 20:42:19:109
-2.4858;-12.405;-4.1432;54385;2021-05-03 20:42:19:109
-2.4858;-12.405;-4.1432;54385;2021-05-03 20:42:19:109
-2.4858;-12.405;-4.1432;54385;2021-05-03 20:42:19:109
-2.4858;-12.405;-4.1432;54385;2021-05-03 20:42:19:109
-2.4858;-12.405;-4.1432;54385;2021-05-03 20:42:19:109
-2.4858;-12.405;-4.1432;54386;2021-05-03 20:42:19:110
-2.4858;-12.405;-4.1432;54386;2021-05-03 20:42:19:110
-2.4858;-12.405;-4.1432;54386;2021-05-03 20:42:19:110
-2.4858;-12.405;-4.1432;54386;2021-05-03 20:42:19:110
-2.4858;-12.405;-4.1432;54386;2021-05-03 20:42:19:110
-2.4858;-12.405;-4.1432;54386;2021-05-03 20:42:19:110
-2.4858;-12.405;-4.1432;54386;2021-05-03 20:42:19:110
-2.4858;-12.405;-4.1432;54386;2021-05-03 20:42:19:110
-2.4858;-12.405;-4.1432;54386;2021-05-03 20:42:19:110
-2.4858;-12.405;-4.1432;54386;2021-05-03 20:42:19:110
-2.4858;-12.405;-4.1432;54386;2021-05-03 20:42:19:110
-2.4858;-12.405;-4.1432;54386;2021-05-03 20:42:19:110
-2.4858;-12.405;-4.1432;54386;2021-05-03 20:42:19:110
-2.4858;-12.405;-4.1432;54386;2021-05-03 20:42:19:110
-2.4858;-12.405;-4.1432;54386;2021-05-03 20:42:19:110
-2.4858;-12.405;-4.1432;54386;2021-05-03 20:42:19:110
-2.4858;-12.405;-4.1432;54386;2021-05-03 20:42:19:110
-2.4858;-12.405;-4.1432;54386;2021-05-03 20:42:19:110
-2.4858;-12.405;-4.1432;54386;2021-05-03 20:42:19:110
-2.4858;-12.405;-4.1432;54386;2021-05-03 20:42:19:110
-2.4858;-12.405;-4.1432;54386;2021-05-03 20:42:19:110
-2.4858;-12.405;-4.1432;54386;2021-05-03 20:42:19:110
-2.4858;-12.405;-4.1432;54386;2021-05-03 20:42:19:110
-2.4858;-12.405;-4.1432;54386;2021-05-03 20:42:19:110
-2.4858;-12.405;-4.1432;54386;2021-05-03 20:42:19:110
-2.4858;-12.405;-4.1432;54387;2021-05-03 20:42:19:111
-2.4858;-12.405;-4.1432;54387;2021-05-03 20:42:19:111
-2.4858;-12.405;-4.1432;54387;2021-05-03 20:42:19:111
-2.4858;-12.405;-4.1432;54387;2021-05-03 20:42:19:111
-2.4858;-12.405;-4.1432;54387;2021-05-03 20:42:19:111
-2.4858;-12.405;-4.1432;54387;2021-05-03 20:42:19:111
-2.4858;-12.405;-4.1432;54387;2021-05-03 20:42:19:111
-2.4858;-12.405;-4.1432;54387;2021-05-03 20:42:19:111
-2.4858;-12.405;-4.1432;54387;2021-05-03 20:42:19:111
-2.4858;-12.405;-4.1432;54387;2021-05-03 20:42:19:111
-2.4858;-12.405;-4.1432;54387;2021-05-03 20:42:19:111
-2.4858;-12.405;-4.1432;54387;2021-05-03 20:42:19:111
-2.4858;-12.405;-4.1432;54387;2021-05-03 20:42:19:111
-2.4858;-12.405;-4.1432;54388;2021-05-03 20:42:19:112
-2.4858;-12.405;-4.1432;54388;2021-05-03 20:42:19:112
-2.4858;-12.405;-4.1432;54388;2021-05-03 20:42:19:112
-2.4858;-12.405;-4.1432;54388;2021-05-03 20:42:19:112
-2.4858;-12.405;-4.1432;54388;2021-05-03 20:42:19:112
-2.4858;-12.405;-4.1432;54388;2021-05-03 20:42:19:112
-2.4858;-12.405;-4.1432;54388;2021-05-03 20:42:19:112
-2.4858;-12.405;-4.1432;54388;2021-05-03 20:42:19:112
-2.4858;-12.405;-4.1432;54388;2021-05-03 20:42:19:112
-2.4858;-12.405;-4.1432;54388;2021-05-03 20:42:19:112
-2.4858;-12.405;-4.1432;54388;2021-05-03 20:42:19:112
-2.4858;-12.405;-4.1432;54389;2021-05-03 20:42:19:113
-2.4858;-12.405;-4.1432;54389;2021-05-03 20:42:19:113
-2.4858;-12.405;-4.1432;54389;2021-05-03 20:42:19:113
-2.4858;-12.405;-4.1432;54389;2021-05-03 20:42:19:113
-2.4858;-12.405;-4.1432;54389;2021-05-03 20:42:19:113
-2.4858;-12.405;-4.1432;54389;2021-05-03 20:42:19:113
-2.4858;-12.405;-4.1432;54389;2021-05-03 20:42:19:113
-2.4858;-12.405;-4.1432;54389;2021-05-03 20:42:19:113
-2.4858;-12.405;-4.1432;54389;2021-05-03 20:42:19:113
-2.4858;-12.405;-4.1432;54389;2021-05-03 20:42:19:113
-2.4858;-12.405;-4.1432;54389;2021-05-03 20:42:19:113
-2.4858;-12.405;-4.1432;54389;2021-05-03 20:42:19:113
-2.4858;-12.405;-4.1432;54389;2021-05-03 20:42:19:113
-2.4858;-12.405;-4.1432;54389;2021-05-03 20:42:19:113
-2.4858;-12.405;-4.1432;54389;2021-05-03 20:42:19:113
-2.4858;-12.405;-4.1432;54389;2021-05-03 20:42:19:113
-2.4858;-12.405;-4.1432;54389;2021-05-03 20:42:19:113
-2.4858;-12.405;-4.1432;54389;2021-05-03 20:42:19:113
-2.4858;-12.405;-4.1432;54389;2021-05-03 20:42:19:113
-2.4858;-12.405;-4.1432;54389;2021-05-03 20:42:19:113
-2.4858;-12.405;-4.1432;54390;2021-05-03 20:42:19:114
-2.4858;-12.405;-4.1432;54390;2021-05-03 20:42:19:114
-2.4858;-12.405;-4.1432;54390;2021-05-03 20:42:19:114
-2.4858;-12.405;-4.1432;54390;2021-05-03 20:42:19:114
-2.4858;-12.405;-4.1432;54390;2021-05-03 20:42:19:114
-2.4858;-12.405;-4.1432;54390;2021-05-03 20:42:19:114
-2.4858;-12.405;-4.1432;54390;2021-05-03 20:42:19:114
-2.4858;-12.405;-4.1432;54390;2021-05-03 20:42:19:114
-2.4858;-12.405;-4.1432;54390;2021-05-03 20:42:19:114
-2.4858;-12.405;-4.1432;54390;2021-05-03 20:42:19:114
-2.4858;-12.405;-4.1432;54390;2021-05-03 20:42:19:114
-2.4858;-12.405;-4.1432;54390;2021-05-03 20:42:19:114
-2.4858;-12.405;-4.1432;54390;2021-05-03 20:42:19:114
-2.4858;-12.405;-4.1432;54390;2021-05-03 20:42:19:114
-2.4858;-12.405;-4.1432;54390;2021-05-03 20:42:19:114
-2.4858;-12.405;-4.1432;54390;2021-05-03 20:42:19:114
-2.4858;-12.405;-4.1432;54390;2021-05-03 20:42:19:114
-2.4858;-12.405;-4.1432;54390;2021-05-03 20:42:19:114
-2.4858;-12.405;-4.1432;54390;2021-05-03 20:42:19:114
-2.4858;-12.405;-4.1432;54391;2021-05-03 20:42:19:115
-2.4858;-12.405;-4.1432;54391;2021-05-03 20:42:19:115
-2.4858;-12.405;-4.1432;54391;2021-05-03 20:42:19:115
-2.4858;-12.405;-4.1432;54391;2021-05-03 20:42:19:115
-2.4858;-12.405;-4.1432;54391;2021-05-03 20:42:19:115
-2.4858;-12.405;-4.1432;54391;2021-05-03 20:42:19:115
-2.4858;-12.405;-4.1432;54391;2021-05-03 20:42:19:115
-2.4858;-12.405;-4.1432;54391;2021-05-03 20:42:19:115
-2.4858;-12.405;-4.1432;54391;2021-05-03 20:42:19:115
-2.4858;-12.405;-4.1432;54391;2021-05-03 20:42:19:115
-2.4858;-12.405;-4.1432;54391;2021-05-03 20:42:19:115
-2.4858;-12.405;-4.1432;54391;2021-05-03 20:42:19:115
-2.4858;-12.405;-4.1432;54391;2021-05-03 20:42:19:115
0.4591;-12.3403;0.2646;54395;2021-05-03 20:42:19:119
0.4591;-12.3403;0.2646;54444;2021-05-03 20:42:19:168
-1.6095;-6.3644;-2.144;54495;2021-05-03 20:42:19:219
-1.6095;-6.3644;-2.144;54633;2021-05-03 20:42:19:357
-1.6095;-6.3644;-2.144;54633;2021-05-03 20:42:19:357
-4.6956;-11.33;-9.7025;54645;2021-05-03 20:42:19:369
-4.6956;-11.33;-9.7025;54694;2021-05-03 20:42:19:418
2.135;-13.207;1.6915;54745;2021-05-03 20:42:19:469
2.135;-13.207;1.6915;54795;2021-05-03 20:42:19:519
0.0305;-8.5934;1.6005;54845;2021-05-03 20:42:19:569
0.0305;-8.5934;1.6005;54895;2021-05-03 20:42:19:619
-1.2216;-9.7689;0.3412;54945;2021-05-03 20:42:19:669
-1.2216;-9.7689;0.3412;54994;2021-05-03 20:42:19:718
-1.0684;-10.3747;-0.3795;55045;2021-05-03 20:42:19:769
-1.0684;-10.3747;-0.3795;55095;2021-05-03 20:42:19:819
1.4814;-10.1879;-1.6484;55144;2021-05-03 20:42:19:868
1.4814;-10.1879;-1.6484;55195;2021-05-03 20:42:19:919
-1.8082;-11.5191;0.3675;55245;2021-05-03 20:42:19:969
-1.8082;-11.5191;0.3675;55295;2021-05-03 20:42:20:019
-1.3629;-11.0546;-0.1041;55345;2021-05-03 20:42:20:069
-1.3629;-11.0546;-0.1041;55395;2021-05-03 20:42:20:119
1.9722;-14.5358;2.496;55445;2021-05-03 20:42:20:169
1.9722;-14.5358;2.496;55495;2021-05-03 20:42:20:219
1.7089;-6.3859;-0.5423;55545;2021-05-03 20:42:20:269
1.7089;-6.3859;-0.5423;55594;2021-05-03 20:42:20:318
0.3513;-5.9382;0.1712;55645;2021-05-03 20:42:20:369
0.3513;-5.9382;0.1712;55694;2021-05-03 20:42:20:418
-0.6327;-10.5638;-13.0328;55745;2021-05-03 20:42:20:469
-0.6327;-10.5638;-13.0328;55795;2021-05-03 20:42:20:519
-0.6997;-6.9174;-2.7497;55845;2021-05-03 20:42:20:569
-0.6997;-6.9174;-2.7497;55895;2021-05-03 20:42:20:619
2.0752;-8.8256;0.65;55944;2021-05-03 20:42:20:668
2.0752;-8.8256;0.65;55995;2021-05-03 20:42:20:719
-0.2783;-9.8503;1.2462;56044;2021-05-03 20:42:20:768
-0.2783;-9.8503;1.2462;56095;2021-05-03 20:42:20:819
-1.1019;-9.8623;0.1472;56144;2021-05-03 20:42:20:868
-1.1019;-9.8623;0.1472;56195;2021-05-03 20:42:20:919
-0.1251;-9.3428;-0.3292;56244;2021-05-03 20:42:20:968
-0.1251;-9.3428;-0.3292;56295;2021-05-03 20:42:21:019
-0.0102;-10.073;-0.1496;56345;2021-05-03 20:42:21:069
-0.0102;-10.073;-0.1496;56395;2021-05-03 20:42:21:119
-2.4547;-11.8208;-3.3722;56445;2021-05-03 20:42:21:169
-2.4547;-11.8208;-3.3722;56494;2021-05-03 20:42:21:218
-0.8338;-10.8511;1.6484;56545;2021-05-03 20:42:21:269
-0.8338;-10.8511;1.6484;56787;2021-05-03 20:42:21:511
-0.8338;-10.8511;1.6484;56788;2021-05-03 20:42:21:512
-0.8338;-10.8511;1.6484;56788;2021-05-03 20:42:21:512
-0.8338;-10.8511;1.6484;56788;2021-05-03 20:42:21:512
-0.8338;-10.8511;1.6484;56788;2021-05-03 20:42:21:512
-0.8338;-10.8511;1.6484;56788;2021-05-03 20:42:21:512
-0.8338;-10.8511;1.6484;56788;2021-05-03 20:42:21:512
-0.8338;-10.8511;1.6484;56789;2021-05-03 20:42:21:513
-0.8338;-10.8511;1.6484;56789;2021-05-03 20:42:21:513
-0.8338;-10.8511;1.6484;56789;2021-05-03 20:42:21:513
-0.8338;-10.8511;1.6484;56789;2021-05-03 20:42:21:513
-0.8338;-10.8511;1.6484;56789;2021-05-03 20:42:21:513
-0.8338;-10.8511;1.6484;56789;2021-05-03 20:42:21:513
-0.8338;-10.8511;1.6484;56789;2021-05-03 20:42:21:513
-0.8338;-10.8511;1.6484;56790;2021-05-03 20:42:21:514
-0.8338;-10.8511;1.6484;56790;2021-05-03 20:42:21:514
-0.8338;-10.8511;1.6484;56790;2021-05-03 20:42:21:514
-0.8338;-10.8511;1.6484;56790;2021-05-03 20:42:21:514
-0.8338;-10.8511;1.6484;56790;2021-05-03 20:42:21:514
-0.8338;-10.8511;1.6484;56790;2021-05-03 20:42:21:514
-0.8338;-10.8511;1.6484;56790;2021-05-03 20:42:21:514
-0.8338;-10.8511;1.6484;56790;2021-05-03 20:42:21:514
-0.8338;-10.8511;1.6484;56791;2021-05-03 20:42:21:515
-0.8338;-10.8511;1.6484;56791;2021-05-03 20:42:21:515
-0.8338;-10.8511;1.6484;56791;2021-05-03 20:42:21:515
-0.8338;-10.8511;1.6484;56791;2021-05-03 20:42:21:515
-0.8338;-10.8511;1.6484;56791;2021-05-03 20:42:21:515
-0.8338;-10.8511;1.6484;56791;2021-05-03 20:42:21:515
-0.8338;-10.8511;1.6484;56791;2021-05-03 20:42:21:515
-0.8338;-10.8511;1.6484;56791;2021-05-03 20:42:21:515
-0.8338;-10.8511;1.6484;56792;2021-05-03 20:42:21:516
-0.8338;-10.8511;1.6484;56792;2021-05-03 20:42:21:516
-0.8338;-10.8511;1.6484;56792;2021-05-03 20:42:21:516
-0.8338;-10.8511;1.6484;56793;2021-05-03 20:42:21:517
-0.8338;-10.8511;1.6484;56793;2021-05-03 20:42:21:517
-0.8338;-10.8511;1.6484;56793;2021-05-03 20:42:21:517
-0.8338;-10.8511;1.6484;56793;2021-05-03 20:42:21:517
-0.8338;-10.8511;1.6484;56794;2021-05-03 20:42:21:518
-0.8338;-10.8511;1.6484;56794;2021-05-03 20:42:21:518
-0.8338;-10.8511;1.6484;56794;2021-05-03 20:42:21:518
