sep=;
ACCELEROMETER X (m/s²);ACCELEROMETER Y (m/s²);ACCELEROMETER Z (m/s²);Time since start in ms ;YYYY-MO-DD HH-MI-SS_SSS
-6.927;2.0967;4.689;6;2021-05-03 21:21:17:378
-6.927;2.0967;4.689;57;2021-05-03 21:21:17:429
-6.5727;2.7719;-0.0323;106;2021-05-03 21:21:17:478
-6.5727;2.7719;-0.0323;156;2021-05-03 21:21:17:528
-6.5727;2.7719;-0.0323;207;2021-05-03 21:21:17:579
-9.8743;0.4495;-3.6117;256;2021-05-03 21:21:17:628
-10.911;-0.5369;-5.8766;307;2021-05-03 21:21:17:679
-10.911;-0.5369;-5.8766;357;2021-05-03 21:21:17:729
-10.911;-0.5369;-5.8766;406;2021-05-03 21:21:17:778
-12.7162;-0.5321;-2.8;457;2021-05-03 21:21:17:829
-12.7162;-0.5321;-2.8;506;2021-05-03 21:21:17:878
-11.9453;1.5652;-3.9421;556;2021-05-03 21:21:17:928
-11.9453;1.5652;-3.9421;607;2021-05-03 21:21:17:979
-10.5447;0.7847;-4.124;656;2021-05-03 21:21:18:028
-10.5447;0.7847;-4.124;707;2021-05-03 21:21:18:079
-3.4052;-0.8553;-5.6395;756;2021-05-03 21:21:18:128
-3.4052;-0.8553;-5.6395;806;2021-05-03 21:21:18:178
-0.999;-3.0005;-8.5078;857;2021-05-03 21:21:18:229
-0.999;-3.0005;-8.5078;906;2021-05-03 21:21:18:278
-4.2048;-4.3748;-8.0816;957;2021-05-03 21:21:18:329
-4.2048;-4.3748;-8.0816;1007;2021-05-03 21:21:18:379
-4.7722;-3.3381;-6.9013;1057;2021-05-03 21:21:18:429
-4.7722;-3.3381;-6.9013;1107;2021-05-03 21:21:18:479
-3.477;-1.9255;-9.3482;1157;2021-05-03 21:21:18:529
-3.477;-1.9255;-9.3482;1206;2021-05-03 21:21:18:578
-8.3899;2.7216;-12.4487;1256;2021-05-03 21:21:18:628
-8.3899;2.7216;-12.4487;1306;2021-05-03 21:21:18:678
-3.8457;-2.9407;-8.7783;1356;2021-05-03 21:21:18:728
-3.8457;-2.9407;-8.7783;1406;2021-05-03 21:21:18:778
-3.9462;-2.3397;-8.5413;1457;2021-05-03 21:21:18:829
-3.9462;-2.3397;-8.5413;1506;2021-05-03 21:21:18:878
-4.6166;-2.5001;-9.4415;1556;2021-05-03 21:21:18:928
-4.6166;-2.5001;-9.4415;1606;2021-05-03 21:21:18:978
-4.0157;-2.7252;-8.5629;1657;2021-05-03 21:21:19:029
-4.0157;-2.7252;-8.5629;1707;2021-05-03 21:21:19:079
-3.3764;-1.0636;-6.1232;1757;2021-05-03 21:21:19:129
-3.3764;-1.0636;-6.1232;1807;2021-05-03 21:21:19:179
-4.5089;0.4495;-8.9675;1856;2021-05-03 21:21:19:228
-4.5089;0.4495;-8.9675;1907;2021-05-03 21:21:19:279
-3.5823;-0.6422;-10.3968;1956;2021-05-03 21:21:19:328
-3.5823;-0.6422;-10.3968;2007;2021-05-03 21:21:19:379
-6.192;0.3466;-10.5884;2056;2021-05-03 21:21:19:428
-6.192;0.3466;-10.5884;2106;2021-05-03 21:21:19:478
-5.4785;1.1414;-5.8095;2156;2021-05-03 21:21:19:528
-5.4785;1.1414;-5.8095;2206;2021-05-03 21:21:19:578
-4.1593;3.7296;-5.1942;2256;2021-05-03 21:21:19:628
-4.1593;3.7296;-5.1942;2306;2021-05-03 21:21:19:678
-0.8697;-0.4339;-6.9372;2356;2021-05-03 21:21:19:728
-0.8697;-0.4339;-6.9372;2407;2021-05-03 21:21:19:779
-0.2496;-0.7093;-15.1924;2457;2021-05-03 21:21:19:829
-0.2496;-0.7093;-15.1924;2507;2021-05-03 21:21:19:879
-2.9718;-4.3389;-7.9835;2557;2021-05-03 21:21:19:929
-2.9718;-4.3389;-7.9835;2606;2021-05-03 21:21:19:978
0.6817;-4.6789;-6.8223;2656;2021-05-03 21:21:20:028
0.6817;-4.6789;-6.8223;2706;2021-05-03 21:21:20:078
4.5699;-3.7116;-8.4288;2756;2021-05-03 21:21:20:128
4.5699;-3.7116;-8.4288;2807;2021-05-03 21:21:20:179
2.8964;-1.8944;-8.0218;2857;2021-05-03 21:21:20:229
2.8964;-1.8944;-8.0218;2906;2021-05-03 21:21:20:278
3.2435;-3.8194;-8.3282;2956;2021-05-03 21:21:20:328
3.2435;-3.8194;-8.3282;3006;2021-05-03 21:21:20:378
3.3992;-3.3668;-9.0824;3056;2021-05-03 21:21:20:428
3.3992;-3.3668;-9.0824;3107;2021-05-03 21:21:20:479
3.4255;-2.3326;-8.8669;3157;2021-05-03 21:21:20:529
3.4255;-2.3326;-8.8669;3207;2021-05-03 21:21:20:579
2.578;-1.6646;-11.0744;3257;2021-05-03 21:21:20:629
2.578;-1.6646;-11.0744;3307;2021-05-03 21:21:20:679
3.9259;-3.8265;-8.1415;3357;2021-05-03 21:21:20:729
3.9259;-3.8265;-8.1415;3407;2021-05-03 21:21:20:779
3.5021;-2.9838;-9.0417;3457;2021-05-03 21:21:20:829
3.5021;-2.9838;-9.0417;3506;2021-05-03 21:21:20:878
3.9929;-3.2998;-8.5102;3557;2021-05-03 21:21:20:929
3.9929;-3.2998;-8.5102;3607;2021-05-03 21:21:20:979
3.9929;-3.2998;-8.5102;3657;2021-05-03 21:21:21:029
3.5356;-3.4866;-7.8949;3706;2021-05-03 21:21:21:078
3.5356;-3.4866;-7.8949;3756;2021-05-03 21:21:21:128
3.4183;-3.2567;-8.6514;3807;2021-05-03 21:21:21:179
3.4183;-3.2567;-8.6514;3857;2021-05-03 21:21:21:229
3.6075;-3.805;-8.2875;3906;2021-05-03 21:21:21:278
3.6075;-3.805;-8.2875;3956;2021-05-03 21:21:21:328
3.4854;-3.6733;-8.5605;4006;2021-05-03 21:21:21:378
3.4854;-3.6733;-8.5605;4056;2021-05-03 21:21:21:428
2.8557;-3.7667;-9.2069;4106;2021-05-03 21:21:21:478
2.8557;-3.7667;-9.2069;4156;2021-05-03 21:21:21:528
2.4678;-3.3166;-8.1511;4207;2021-05-03 21:21:21:579
2.4678;-3.3166;-8.1511;4257;2021-05-03 21:21:21:629
2.5325;-3.7116;-8.5533;4306;2021-05-03 21:21:21:678
2.5325;-3.7116;-8.5533;4356;2021-05-03 21:21:21:728
2.3409;-4.3509;-8.6993;4406;2021-05-03 21:21:21:778
2.3409;-4.3509;-8.6993;4456;2021-05-03 21:21:21:828
2.1494;-3.8505;-8.5988;4506;2021-05-03 21:21:21:878
2.1494;-3.8505;-8.5988;4557;2021-05-03 21:21:21:929
2.1326;-3.8744;-8.9483;4607;2021-05-03 21:21:21:979
2.1326;-3.8744;-8.9483;4656;2021-05-03 21:21:22:028
2.305;-3.6757;-8.4264;4706;2021-05-03 21:21:22:078
2.305;-3.6757;-8.4264;4756;2021-05-03 21:21:22:128
2.0057;-3.9271;-8.7185;4807;2021-05-03 21:21:22:179
2.0057;-3.9271;-8.7185;4857;2021-05-03 21:21:22:229
1.989;-3.963;-8.7209;4907;2021-05-03 21:21:22:279
1.989;-3.963;-8.7209;4956;2021-05-03 21:21:22:328
1.9291;-3.4147;-9.2548;5007;2021-05-03 21:21:22:379
1.9291;-3.4147;-9.2548;5057;2021-05-03 21:21:22:429
2.1757;-3.6398;-8.7879;5106;2021-05-03 21:21:22:478
2.1757;-3.6398;-8.7879;5156;2021-05-03 21:21:22:528
1.9722;-3.793;-8.831;5206;2021-05-03 21:21:22:578
1.9722;-3.793;-8.831;5256;2021-05-03 21:21:22:628
1.9722;-3.714;-9.0393;5306;2021-05-03 21:21:22:678
1.9722;-3.714;-9.0393;5356;2021-05-03 21:21:22:728
2.317;-3.7834;-8.5964;5406;2021-05-03 21:21:22:778
2.317;-3.7834;-8.5964;5457;2021-05-03 21:21:22:829
2.4439;-3.5081;-8.7209;5507;2021-05-03 21:21:22:879
2.4439;-3.5081;-8.7209;5557;2021-05-03 21:21:22:929
2.4008;-3.556;-8.8669;5607;2021-05-03 21:21:22:979
2.4008;-3.556;-8.8669;5656;2021-05-03 21:21:23:028
2.6426;-4.2623;-8.9723;5706;2021-05-03 21:21:23:078
2.6426;-4.2623;-8.9723;5756;2021-05-03 21:21:23:128
2.9012;-3.6398;-8.4264;5806;2021-05-03 21:21:23:178
2.9012;-3.6398;-8.4264;5857;2021-05-03 21:21:23:229
3.289;-3.5177;-8.3809;5907;2021-05-03 21:21:23:279
3.289;-3.5177;-8.3809;5957;2021-05-03 21:21:23:329
2.4175;-3.204;-8.4743;6007;2021-05-03 21:21:23:379
2.4175;-3.204;-8.4743;6057;2021-05-03 21:21:23:429
3.1406;-3.3621;-8.9675;6107;2021-05-03 21:21:23:479
3.1406;-3.3621;-8.9675;6157;2021-05-03 21:21:23:529
2.4319;-3.5081;-8.9723;6207;2021-05-03 21:21:23:579
2.4319;-3.5081;-8.9723;6257;2021-05-03 21:21:23:629
2.5085;-3.6111;-8.661;6307;2021-05-03 21:21:23:679
2.5085;-3.6111;-8.661;6357;2021-05-03 21:21:23:729
2.4966;-3.5129;-8.7736;6407;2021-05-03 21:21:23:779
2.4966;-3.5129;-8.7736;6457;2021-05-03 21:21:23:829
2.5229;-3.568;-8.7999;6507;2021-05-03 21:21:23:879
2.5229;-3.568;-8.7999;6557;2021-05-03 21:21:23:929
2.3002;-3.5656;-8.8382;6607;2021-05-03 21:21:23:979
2.3002;-3.5656;-8.8382;6657;2021-05-03 21:21:24:029
2.6474;-3.635;-8.8166;6706;2021-05-03 21:21:24:078
2.6474;-3.635;-8.8166;6756;2021-05-03 21:21:24:128
2.4678;-3.5656;-8.7329;6806;2021-05-03 21:21:24:178
2.4678;-3.5656;-8.7329;6856;2021-05-03 21:21:24:228
2.4008;-3.5584;-8.8214;6906;2021-05-03 21:21:24:278
2.4008;-3.5584;-8.8214;6956;2021-05-03 21:21:24:328
2.3864;-3.5177;-8.8334;7007;2021-05-03 21:21:24:379
2.3864;-3.5177;-8.8334;7057;2021-05-03 21:21:24:429
2.396;-3.6039;-8.8143;7107;2021-05-03 21:21:24:479
2.396;-3.6039;-8.8143;7157;2021-05-03 21:21:24:529
2.4702;-3.556;-8.819;7206;2021-05-03 21:21:24:578
2.4702;-3.556;-8.819;7256;2021-05-03 21:21:24:628
2.408;-3.5727;-8.8382;7307;2021-05-03 21:21:24:679
2.408;-3.5727;-8.8382;7357;2021-05-03 21:21:24:729
2.4415;-3.4985;-8.819;7406;2021-05-03 21:21:24:778
2.4415;-3.4985;-8.819;7457;2021-05-03 21:21:24:829
2.3936;-3.544;-8.8358;7506;2021-05-03 21:21:24:878
2.3936;-3.544;-8.8358;7557;2021-05-03 21:21:24:929
2.4271;-3.5416;-8.8119;7607;2021-05-03 21:21:24:979
2.4271;-3.5416;-8.8119;7657;2021-05-03 21:21:25:029
2.4056;-3.532;-8.8071;7707;2021-05-03 21:21:25:079
2.4056;-3.532;-8.8071;7757;2021-05-03 21:21:25:129
2.4415;-3.5392;-8.819;7807;2021-05-03 21:21:25:179
2.4415;-3.5392;-8.819;7856;2021-05-03 21:21:25:228
2.3601;-3.5177;-8.8071;7906;2021-05-03 21:21:25:278
2.3601;-3.5177;-8.8071;7957;2021-05-03 21:21:25:329
2.4152;-3.5081;-8.8262;8007;2021-05-03 21:21:25:379
2.4152;-3.5081;-8.8262;8057;2021-05-03 21:21:25:429
2.4056;-3.5416;-8.7999;8107;2021-05-03 21:21:25:479
2.4056;-3.5416;-8.7999;8157;2021-05-03 21:21:25:529
2.4247;-3.5704;-8.8238;8207;2021-05-03 21:21:25:579
2.4247;-3.5704;-8.8238;8257;2021-05-03 21:21:25:629
2.3768;-3.5081;-8.831;8307;2021-05-03 21:21:25:679
2.3768;-3.5081;-8.831;8357;2021-05-03 21:21:25:729
2.4295;-3.5344;-8.8669;8407;2021-05-03 21:21:25:779
2.4295;-3.5344;-8.8669;8457;2021-05-03 21:21:25:829
2.3816;-3.5368;-8.7903;8507;2021-05-03 21:21:25:879
2.3816;-3.5368;-8.7903;8557;2021-05-03 21:21:25:929
2.4199;-3.5608;-8.8502;8607;2021-05-03 21:21:25:979
2.4199;-3.5608;-8.8502;8657;2021-05-03 21:21:26:029
2.3792;-3.5464;-8.8478;8707;2021-05-03 21:21:26:079
2.3792;-3.5464;-8.8478;8757;2021-05-03 21:21:26:129
2.4152;-3.489;-8.8143;8807;2021-05-03 21:21:26:179
2.4152;-3.489;-8.8143;8857;2021-05-03 21:21:26:229
2.3888;-3.5225;-8.8262;8906;2021-05-03 21:21:26:278
2.3888;-3.5225;-8.8262;8957;2021-05-03 21:21:26:329
2.3266;-3.7308;-9.0249;9007;2021-05-03 21:21:26:379
2.3266;-3.7308;-9.0249;9057;2021-05-03 21:21:26:429
2.3649;-3.398;-8.855;9107;2021-05-03 21:21:26:479
2.3649;-3.398;-8.855;9157;2021-05-03 21:21:26:529
2.4104;-3.2663;-8.7855;9207;2021-05-03 21:21:26:579
2.4104;-3.2663;-8.7855;9256;2021-05-03 21:21:26:628
2.4367;-3.6589;-8.9148;9306;2021-05-03 21:21:26:678
2.4367;-3.6589;-8.9148;9356;2021-05-03 21:21:26:728
2.3984;-3.6685;-8.8861;9406;2021-05-03 21:21:26:778
2.3984;-3.6685;-8.8861;9456;2021-05-03 21:21:26:828
2.4271;-3.5273;-8.8597;9506;2021-05-03 21:21:26:878
2.4271;-3.5273;-8.8597;9556;2021-05-03 21:21:26:928
2.3529;-3.4099;-8.7831;9606;2021-05-03 21:21:26:978
2.3529;-3.4099;-8.7831;9656;2021-05-03 21:21:27:028
2.4128;-3.5201;-8.7999;9706;2021-05-03 21:21:27:078
2.4128;-3.5201;-8.7999;9756;2021-05-03 21:21:27:128
2.4535;-3.6254;-8.8406;9806;2021-05-03 21:21:27:178
2.4535;-3.6254;-8.8406;9856;2021-05-03 21:21:27:228
2.4152;-3.5871;-8.8143;9907;2021-05-03 21:21:27:279
2.4152;-3.5871;-8.8143;9957;2021-05-03 21:21:27:329
2.4367;-3.4913;-8.7975;10006;2021-05-03 21:21:27:378
2.4367;-3.4913;-8.7975;10057;2021-05-03 21:21:27:429
2.3888;-3.5081;-8.7688;10107;2021-05-03 21:21:27:479
2.3888;-3.5081;-8.7688;10156;2021-05-03 21:21:27:528
2.4271;-3.556;-8.8023;10206;2021-05-03 21:21:27:578
2.4271;-3.556;-8.8023;10256;2021-05-03 21:21:27:628
2.4271;-3.5775;-8.8454;10306;2021-05-03 21:21:27:678
2.4271;-3.5775;-8.8454;10356;2021-05-03 21:21:27:728
2.4223;-3.5847;-8.8071;10406;2021-05-03 21:21:27:778
2.4223;-3.5847;-8.8071;10456;2021-05-03 21:21:27:828
2.4008;-3.4985;-8.8095;10507;2021-05-03 21:21:27:879
2.4008;-3.4985;-8.8095;10557;2021-05-03 21:21:27:929
2.4008;-3.5584;-8.8478;10607;2021-05-03 21:21:27:979
2.4008;-3.5584;-8.8478;10657;2021-05-03 21:21:28:029
2.4152;-3.5751;-8.8406;10706;2021-05-03 21:21:28:078
2.4152;-3.5751;-8.8406;10756;2021-05-03 21:21:28:128
2.3888;-3.5488;-8.8047;10806;2021-05-03 21:21:28:178
2.3888;-3.5488;-8.8047;10856;2021-05-03 21:21:28:228
2.4199;-3.5416;-8.8023;10907;2021-05-03 21:21:28:279
2.4199;-3.5416;-8.8023;10957;2021-05-03 21:21:28:329
2.3792;-3.5225;-8.8358;11006;2021-05-03 21:21:28:378
2.3792;-3.5225;-8.8358;11056;2021-05-03 21:21:28:428
2.4199;-3.5775;-8.8526;11106;2021-05-03 21:21:28:478
2.4199;-3.5775;-8.8526;11156;2021-05-03 21:21:28:528
2.3792;-3.5057;-8.8095;11207;2021-05-03 21:21:28:579
2.3792;-3.5057;-8.8095;11257;2021-05-03 21:21:28:629
2.384;-3.5201;-8.8358;11306;2021-05-03 21:21:28:678
2.384;-3.5201;-8.8358;11356;2021-05-03 21:21:28:728
2.384;-3.5105;-8.8406;11406;2021-05-03 21:21:28:778
2.384;-3.5105;-8.8406;11456;2021-05-03 21:21:28:828
2.3768;-3.5392;-8.8358;11506;2021-05-03 21:21:28:878
2.3768;-3.5392;-8.8358;11556;2021-05-03 21:21:28:928
2.4295;-3.5512;-8.8143;11606;2021-05-03 21:21:28:978
2.4295;-3.5512;-8.8143;11656;2021-05-03 21:21:29:028
2.3433;-3.4961;-8.7975;11707;2021-05-03 21:21:29:079
2.3433;-3.4961;-8.7975;11757;2021-05-03 21:21:29:129
2.4032;-3.5273;-8.831;11807;2021-05-03 21:21:29:179
2.4032;-3.5273;-8.831;11857;2021-05-03 21:21:29:229
2.3864;-3.5153;-8.8238;11906;2021-05-03 21:21:29:278
2.3864;-3.5153;-8.8238;11956;2021-05-03 21:21:29:328
2.384;-3.5512;-8.831;12006;2021-05-03 21:21:29:378
2.384;-3.5512;-8.831;12056;2021-05-03 21:21:29:428
2.396;-3.5225;-8.843;12106;2021-05-03 21:21:29:478
2.396;-3.5225;-8.843;12156;2021-05-03 21:21:29:528
2.4056;-3.5656;-8.8597;12207;2021-05-03 21:21:29:579
2.4056;-3.5656;-8.8597;12257;2021-05-03 21:21:29:629
2.4175;-3.5057;-8.8406;12307;2021-05-03 21:21:29:679
2.4175;-3.5057;-8.8406;12357;2021-05-03 21:21:29:729
2.3744;-3.5297;-8.8286;12406;2021-05-03 21:21:29:778
2.3744;-3.5297;-8.8286;12456;2021-05-03 21:21:29:828
2.4295;-3.5536;-8.8286;12507;2021-05-03 21:21:29:879
2.4295;-3.5536;-8.8286;12557;2021-05-03 21:21:29:929
2.3888;-3.5033;-8.8358;12607;2021-05-03 21:21:29:979
2.3888;-3.5033;-8.8358;12657;2021-05-03 21:21:30:029
2.4008;-3.5344;-8.8358;12707;2021-05-03 21:21:30:079
2.4008;-3.5344;-8.8358;12757;2021-05-03 21:21:30:129
2.3457;-3.5201;-8.7855;12806;2021-05-03 21:21:30:178
2.3457;-3.5201;-8.7855;12856;2021-05-03 21:21:30:228
2.3984;-3.5392;-8.843;12906;2021-05-03 21:21:30:278
2.3984;-3.5392;-8.843;12957;2021-05-03 21:21:30:329
2.3984;-3.5009;-8.8406;13007;2021-05-03 21:21:30:379
2.3984;-3.5009;-8.8406;13056;2021-05-03 21:21:30:428
2.3744;-3.5512;-8.8071;13107;2021-05-03 21:21:30:479
2.3744;-3.5512;-8.8071;13157;2021-05-03 21:21:30:529
2.4104;-3.5273;-8.819;13206;2021-05-03 21:21:30:578
2.4104;-3.5273;-8.819;13256;2021-05-03 21:21:30:628
2.3912;-3.5512;-8.8645;13306;2021-05-03 21:21:30:678
2.3912;-3.5512;-8.8645;13356;2021-05-03 21:21:30:728
2.4104;-3.5297;-8.843;13406;2021-05-03 21:21:30:778
2.4104;-3.5297;-8.843;13457;2021-05-03 21:21:30:829
2.3888;-3.5201;-8.7999;13506;2021-05-03 21:21:30:878
2.3888;-3.5201;-8.7999;13556;2021-05-03 21:21:30:928
2.4343;-3.5632;-8.8143;13606;2021-05-03 21:21:30:978
2.4343;-3.5632;-8.8143;13656;2021-05-03 21:21:31:028
2.4343;-3.5177;-8.819;13706;2021-05-03 21:21:31:078
2.4343;-3.5177;-8.819;13756;2021-05-03 21:21:31:128
2.408;-3.5536;-8.8095;13806;2021-05-03 21:21:31:178
2.408;-3.5536;-8.8095;13856;2021-05-03 21:21:31:228
2.3864;-3.5129;-8.8166;13906;2021-05-03 21:21:31:278
2.3864;-3.5129;-8.8166;13957;2021-05-03 21:21:31:329
2.4008;-3.5536;-8.8382;14008;2021-05-03 21:21:31:380
2.4008;-3.5536;-8.8382;14056;2021-05-03 21:21:31:428
2.4175;-3.568;-8.831;14106;2021-05-03 21:21:31:478
2.4175;-3.568;-8.831;14157;2021-05-03 21:21:31:529
2.4056;-3.5249;-8.819;14207;2021-05-03 21:21:31:579
2.4056;-3.5249;-8.819;14257;2021-05-03 21:21:31:629
2.3888;-3.5919;-8.7951;14306;2021-05-03 21:21:31:678
2.3888;-3.5919;-8.7951;14356;2021-05-03 21:21:31:728
2.4511;-3.6326;-8.8358;14406;2021-05-03 21:21:31:778
2.4511;-3.6326;-8.8358;14456;2021-05-03 21:21:31:828
2.396;-3.6039;-8.8286;14506;2021-05-03 21:21:31:878
2.396;-3.6039;-8.8286;14556;2021-05-03 21:21:31:928
2.3864;-3.5297;-8.8286;14606;2021-05-03 21:21:31:978
2.3864;-3.5297;-8.8286;14656;2021-05-03 21:21:32:028
2.4032;-3.5871;-8.7759;14707;2021-05-03 21:21:32:079
2.4032;-3.5871;-8.7759;14756;2021-05-03 21:21:32:128
2.4056;-3.5464;-8.8238;14806;2021-05-03 21:21:32:178
2.4056;-3.5464;-8.8238;14856;2021-05-03 21:21:32:228
2.4032;-3.5751;-8.8214;14906;2021-05-03 21:21:32:278
2.4032;-3.5751;-8.8214;14956;2021-05-03 21:21:32:328
2.3673;-3.4746;-8.7688;15007;2021-05-03 21:21:32:379
2.3673;-3.4746;-8.7688;15057;2021-05-03 21:21:32:429
2.4175;-3.5512;-8.7927;15107;2021-05-03 21:21:32:479
2.4175;-3.5512;-8.7927;15157;2021-05-03 21:21:32:529
2.4199;-3.5416;-8.8262;15206;2021-05-03 21:21:32:578
2.4199;-3.5416;-8.8262;15256;2021-05-03 21:21:32:628
2.3912;-3.556;-8.8238;15306;2021-05-03 21:21:32:678
2.3912;-3.556;-8.8238;15356;2021-05-03 21:21:32:728
2.4032;-3.5249;-8.8071;15406;2021-05-03 21:21:32:778
2.4032;-3.5249;-8.8071;15457;2021-05-03 21:21:32:829
2.3864;-3.5608;-8.8478;15506;2021-05-03 21:21:32:878
2.3864;-3.5608;-8.8478;15556;2021-05-03 21:21:32:928
2.4199;-3.556;-8.8502;15606;2021-05-03 21:21:32:978
2.4199;-3.556;-8.8502;15656;2021-05-03 21:21:33:028
2.3697;-3.5201;-8.8095;15707;2021-05-03 21:21:33:079
2.3697;-3.5201;-8.8095;15756;2021-05-03 21:21:33:128
2.4271;-3.568;-8.8119;15806;2021-05-03 21:21:33:178
2.4271;-3.568;-8.8119;15857;2021-05-03 21:21:33:229
2.4152;-3.5105;-8.8286;15907;2021-05-03 21:21:33:279
2.4152;-3.5105;-8.8286;15957;2021-05-03 21:21:33:329
2.3936;-3.5584;-8.8238;16007;2021-05-03 21:21:33:379
2.3936;-3.5584;-8.8238;16057;2021-05-03 21:21:33:429
2.3481;-3.5105;-8.7831;16107;2021-05-03 21:21:33:479
2.3481;-3.5105;-8.7831;16157;2021-05-03 21:21:33:529
2.408;-3.5464;-8.8214;16206;2021-05-03 21:21:33:578
2.408;-3.5464;-8.8214;16256;2021-05-03 21:21:33:628
2.3912;-3.5177;-8.843;16307;2021-05-03 21:21:33:679
2.3912;-3.5177;-8.843;16357;2021-05-03 21:21:33:729
2.3888;-3.5488;-8.8238;16406;2021-05-03 21:21:33:778
2.3888;-3.5488;-8.8238;16456;2021-05-03 21:21:33:828
2.4032;-3.5201;-8.819;16506;2021-05-03 21:21:33:878
2.4032;-3.5201;-8.819;16557;2021-05-03 21:21:33:929
2.396;-3.544;-8.8573;16606;2021-05-03 21:21:33:978
2.396;-3.544;-8.8573;16657;2021-05-03 21:21:34:029
2.3673;-3.5153;-8.7879;16707;2021-05-03 21:21:34:079
2.3673;-3.5153;-8.7879;16757;2021-05-03 21:21:34:129
2.408;-3.5273;-8.8406;16807;2021-05-03 21:21:34:179
2.408;-3.5273;-8.8406;16856;2021-05-03 21:21:34:228
2.3984;-3.5129;-8.831;16907;2021-05-03 21:21:34:279
2.3984;-3.5129;-8.831;16957;2021-05-03 21:21:34:329
2.3792;-3.5344;-8.8214;17006;2021-05-03 21:21:34:378
2.3792;-3.5344;-8.8214;17056;2021-05-03 21:21:34:428
2.4199;-3.5129;-8.8214;17106;2021-05-03 21:21:34:478
2.4199;-3.5129;-8.8214;17157;2021-05-03 21:21:34:529
2.396;-3.5177;-8.8119;17207;2021-05-03 21:21:34:579
2.396;-3.5177;-8.8119;17256;2021-05-03 21:21:34:628
2.3673;-3.4985;-8.7783;17306;2021-05-03 21:21:34:678
2.3673;-3.4985;-8.7783;17357;2021-05-03 21:21:34:729
2.4104;-3.5512;-8.8166;17406;2021-05-03 21:21:34:778
2.4104;-3.5512;-8.8166;17456;2021-05-03 21:21:34:828
2.3744;-3.5105;-8.8454;17507;2021-05-03 21:21:34:879
2.3744;-3.5105;-8.8454;17556;2021-05-03 21:21:34:928
2.4008;-3.5704;-8.819;17606;2021-05-03 21:21:34:978
2.4008;-3.5704;-8.819;17656;2021-05-03 21:21:35:028
2.4056;-3.532;-8.8214;17706;2021-05-03 21:21:35:078
2.4056;-3.532;-8.8214;17756;2021-05-03 21:21:35:128
2.4056;-3.544;-8.8262;17806;2021-05-03 21:21:35:178
2.4056;-3.544;-8.8262;17857;2021-05-03 21:21:35:229
2.4056;-3.5632;-8.8765;17907;2021-05-03 21:21:35:279
2.4056;-3.5632;-8.8765;17957;2021-05-03 21:21:35:329
2.3577;-3.5201;-8.8119;18006;2021-05-03 21:21:35:378
2.3577;-3.5201;-8.8119;18056;2021-05-03 21:21:35:428
2.408;-3.5488;-8.8119;18106;2021-05-03 21:21:35:478
2.408;-3.5488;-8.8119;18157;2021-05-03 21:21:35:529
2.4199;-3.5416;-8.8095;18207;2021-05-03 21:21:35:579
2.4199;-3.5416;-8.8095;18256;2021-05-03 21:21:35:628
2.3816;-3.5656;-8.8238;18307;2021-05-03 21:21:35:679
2.3816;-3.5656;-8.8238;18356;2021-05-03 21:21:35:728
2.3649;-3.5392;-8.8286;18406;2021-05-03 21:21:35:778
2.3649;-3.5392;-8.8286;18456;2021-05-03 21:21:35:828
2.305;-3.5225;-8.8119;18506;2021-05-03 21:21:35:878
2.305;-3.5225;-8.8119;18557;2021-05-03 21:21:35:929
2.4104;-3.5704;-8.8573;18606;2021-05-03 21:21:35:978
2.4104;-3.5704;-8.8573;18657;2021-05-03 21:21:36:029
2.4152;-3.4746;-8.8119;18707;2021-05-03 21:21:36:079
2.4152;-3.4746;-8.8119;18757;2021-05-03 21:21:36:129
2.3864;-3.5033;-8.8454;18807;2021-05-03 21:21:36:179
2.3864;-3.5033;-8.8454;18856;2021-05-03 21:21:36:228
2.6498;-3.3477;-8.8526;18906;2021-05-03 21:21:36:278
2.6498;-3.3477;-8.8526;18957;2021-05-03 21:21:36:329
2.3218;-3.568;-8.8957;19006;2021-05-03 21:21:36:378
2.3218;-3.568;-8.8957;19056;2021-05-03 21:21:36:428
2.3409;-3.5584;-8.6874;19106;2021-05-03 21:21:36:478
2.3409;-3.5584;-8.6874;19156;2021-05-03 21:21:36:528
2.384;-3.4698;-8.7712;19206;2021-05-03 21:21:36:578
2.384;-3.4698;-8.7712;19256;2021-05-03 21:21:36:628
2.4894;-3.4291;-8.9196;19306;2021-05-03 21:21:36:678
2.4894;-3.4291;-8.9196;19357;2021-05-03 21:21:36:729
2.4726;-3.489;-8.8693;19407;2021-05-03 21:21:36:779
2.4726;-3.489;-8.8693;19457;2021-05-03 21:21:36:829
2.6043;-3.4243;-8.9076;19507;2021-05-03 21:21:36:879
2.6043;-3.4243;-8.9076;19556;2021-05-03 21:21:36:928
2.5923;-3.4722;-8.9268;19607;2021-05-03 21:21:36:979
2.5923;-3.4722;-8.9268;19656;2021-05-03 21:21:37:028
2.5756;-3.3573;-9.0106;19706;2021-05-03 21:21:37:078
2.5756;-3.3573;-9.0106;19756;2021-05-03 21:21:37:128
2.3074;-3.5967;-8.8957;19806;2021-05-03 21:21:37:178
2.3074;-3.5967;-8.8957;19856;2021-05-03 21:21:37:228
2.3984;-3.5464;-8.8119;19906;2021-05-03 21:21:37:278
2.3984;-3.5464;-8.8119;19956;2021-05-03 21:21:37:328
2.475;-3.5273;-8.819;20006;2021-05-03 21:21:37:378
2.475;-3.5273;-8.819;20057;2021-05-03 21:21:37:429
2.5899;-3.5847;-9.1494;20107;2021-05-03 21:21:37:479
2.5899;-3.5847;-9.1494;20156;2021-05-03 21:21:37:528
2.0321;-3.7691;-8.5246;20206;2021-05-03 21:21:37:578
2.0321;-3.7691;-8.5246;20256;2021-05-03 21:21:37:628
2.4056;-3.4363;-8.6921;20306;2021-05-03 21:21:37:678
2.4056;-3.4363;-8.6921;20357;2021-05-03 21:21:37:729
2.3816;-3.6254;-8.9675;20407;2021-05-03 21:21:37:779
2.3816;-3.6254;-8.9675;20457;2021-05-03 21:21:37:829
2.3912;-3.6158;-8.8645;20506;2021-05-03 21:21:37:878
2.3912;-3.6158;-8.8645;20556;2021-05-03 21:21:37:928
2.3697;-3.6063;-8.7855;20607;2021-05-03 21:21:37:979
2.3697;-3.6063;-8.7855;20656;2021-05-03 21:21:38:028
2.4271;-3.5727;-8.7879;20706;2021-05-03 21:21:38:078
2.4271;-3.5727;-8.7879;20756;2021-05-03 21:21:38:128
2.3984;-3.5967;-8.7736;20807;2021-05-03 21:21:38:179
2.3984;-3.5967;-8.7736;20857;2021-05-03 21:21:38:229
2.4032;-3.5608;-8.8143;20907;2021-05-03 21:21:38:279
2.4032;-3.5608;-8.8143;20956;2021-05-03 21:21:38:328
2.4271;-3.5823;-8.7951;21006;2021-05-03 21:21:38:378
2.4271;-3.5823;-8.7951;21056;2021-05-03 21:21:38:428
2.3912;-3.5249;-8.7736;21106;2021-05-03 21:21:38:478
2.3912;-3.5249;-8.7736;21157;2021-05-03 21:21:38:529
2.4008;-3.5847;-8.8047;21207;2021-05-03 21:21:38:579
2.4008;-3.5847;-8.8047;21256;2021-05-03 21:21:38:628
2.4223;-3.5584;-8.831;21306;2021-05-03 21:21:38:678
2.4223;-3.5584;-8.831;21357;2021-05-03 21:21:38:729
2.4199;-3.6015;-8.8119;21407;2021-05-03 21:21:38:779
2.4199;-3.6015;-8.8119;21456;2021-05-03 21:21:38:828
2.408;-3.5823;-8.8143;21506;2021-05-03 21:21:38:878
2.408;-3.5823;-8.8143;21556;2021-05-03 21:21:38:928
2.4056;-3.5751;-8.8573;21607;2021-05-03 21:21:38:979
2.4056;-3.5751;-8.8573;21656;2021-05-03 21:21:39:028
2.3505;-3.5297;-8.7951;21706;2021-05-03 21:21:39:078
2.3505;-3.5297;-8.7951;21756;2021-05-03 21:21:39:128
2.408;-3.556;-8.8119;21807;2021-05-03 21:21:39:179
2.408;-3.556;-8.8119;21856;2021-05-03 21:21:39:228
2.4415;-3.5225;-8.7999;21906;2021-05-03 21:21:39:278
2.4415;-3.5225;-8.7999;21957;2021-05-03 21:21:39:329
2.3864;-3.5823;-8.831;22007;2021-05-03 21:21:39:379
2.3864;-3.5823;-8.831;22056;2021-05-03 21:21:39:428
2.4152;-3.5536;-8.7879;22106;2021-05-03 21:21:39:478
2.4152;-3.5536;-8.7879;22157;2021-05-03 21:21:39:529
2.4559;-3.5512;-8.8071;22207;2021-05-03 21:21:39:579
2.4559;-3.5512;-8.8071;22256;2021-05-03 21:21:39:628
2.3768;-3.5512;-8.8047;22306;2021-05-03 21:21:39:678
2.3768;-3.5512;-8.8047;22356;2021-05-03 21:21:39:728
2.3768;-3.5919;-8.8645;22406;2021-05-03 21:21:39:778
2.3768;-3.5919;-8.8645;22457;2021-05-03 21:21:39:829
2.3768;-3.5919;-8.8645;22506;2021-05-03 21:21:39:878
2.4175;-3.544;-8.8214;22557;2021-05-03 21:21:39:929
2.3744;-3.5584;-8.8023;22607;2021-05-03 21:21:39:979
2.3744;-3.5584;-8.8023;22657;2021-05-03 21:21:40:029
2.3744;-3.5584;-8.8023;22707;2021-05-03 21:21:40:079
2.3864;-3.5153;-8.8214;22757;2021-05-03 21:21:40:129
2.3864;-3.5153;-8.8214;22807;2021-05-03 21:21:40:179
2.384;-3.5871;-8.8143;22856;2021-05-03 21:21:40:228
2.384;-3.5871;-8.8143;22906;2021-05-03 21:21:40:278
2.3529;-3.5273;-8.764;22956;2021-05-03 21:21:40:328
2.3529;-3.5273;-8.764;23006;2021-05-03 21:21:40:378
2.3912;-3.5584;-8.8166;23057;2021-05-03 21:21:40:429
2.3912;-3.5584;-8.8166;23107;2021-05-03 21:21:40:479
2.3744;-3.5273;-8.8502;23156;2021-05-03 21:21:40:528
2.3744;-3.5273;-8.8502;23206;2021-05-03 21:21:40:578
2.384;-3.5847;-8.8119;23256;2021-05-03 21:21:40:628
2.384;-3.5847;-8.8119;23306;2021-05-03 21:21:40:678
2.3697;-3.5632;-8.8166;23357;2021-05-03 21:21:40:729
2.3697;-3.5632;-8.8166;23407;2021-05-03 21:21:40:779
2.3768;-3.5704;-8.8717;23456;2021-05-03 21:21:40:828
2.3768;-3.5704;-8.8717;23506;2021-05-03 21:21:40:878
2.3481;-3.532;-8.8119;23557;2021-05-03 21:21:40:929
2.3481;-3.532;-8.8119;23607;2021-05-03 21:21:40:979
2.3768;-3.5632;-8.8166;23656;2021-05-03 21:21:41:028
2.3768;-3.5632;-8.8166;23707;2021-05-03 21:21:41:079
2.408;-3.5584;-8.8047;23757;2021-05-03 21:21:41:129
2.408;-3.5584;-8.8047;23807;2021-05-03 21:21:41:179
2.3768;-3.5584;-8.8143;23856;2021-05-03 21:21:41:228
2.3768;-3.5584;-8.8143;23906;2021-05-03 21:21:41:278
2.384;-3.5512;-8.7783;23956;2021-05-03 21:21:41:328
2.384;-3.5512;-8.7783;24006;2021-05-03 21:21:41:378
2.3697;-3.5656;-8.7688;24056;2021-05-03 21:21:41:428
2.3697;-3.5656;-8.7688;24106;2021-05-03 21:21:41:478
2.396;-3.6039;-8.8214;24156;2021-05-03 21:21:41:528
2.396;-3.6039;-8.8214;24207;2021-05-03 21:21:41:579
2.3697;-3.5584;-8.831;24257;2021-05-03 21:21:41:629
2.3697;-3.5584;-8.831;24307;2021-05-03 21:21:41:679
2.3888;-3.5871;-8.8119;24356;2021-05-03 21:21:41:728
2.3888;-3.5871;-8.8119;24406;2021-05-03 21:21:41:778
2.3816;-3.5823;-8.831;24457;2021-05-03 21:21:41:829
2.3816;-3.5823;-8.831;24507;2021-05-03 21:21:41:879
2.396;-3.6015;-8.8765;24557;2021-05-03 21:21:41:929
2.396;-3.6015;-8.8765;24607;2021-05-03 21:21:41:979
2.3505;-3.5512;-8.8358;24656;2021-05-03 21:21:42:028
2.3505;-3.5512;-8.8358;24706;2021-05-03 21:21:42:078
2.2978;-3.6326;-8.8693;24757;2021-05-03 21:21:42:129
2.2978;-3.6326;-8.8693;24807;2021-05-03 21:21:42:179
2.3936;-3.5584;-8.7951;24856;2021-05-03 21:21:42:228
2.3936;-3.5584;-8.7951;24907;2021-05-03 21:21:42:279
2.3649;-3.5464;-8.8119;24956;2021-05-03 21:21:42:328
2.3649;-3.5464;-8.8119;25007;2021-05-03 21:21:42:379
2.4056;-3.5464;-8.7999;25056;2021-05-03 21:21:42:428
2.4056;-3.5464;-8.7999;25106;2021-05-03 21:21:42:478
2.3337;-3.532;-8.7831;25156;2021-05-03 21:21:42:528
2.3337;-3.532;-8.7831;25206;2021-05-03 21:21:42:578
2.4032;-3.5608;-8.8262;25257;2021-05-03 21:21:42:629
2.4032;-3.5608;-8.8262;25307;2021-05-03 21:21:42:679
2.3505;-3.5273;-8.8382;25356;2021-05-03 21:21:42:728
2.3505;-3.5273;-8.8382;25406;2021-05-03 21:21:42:778
2.3864;-3.5536;-8.8406;25456;2021-05-03 21:21:42:828
2.3864;-3.5536;-8.8406;25506;2021-05-03 21:21:42:878
2.3816;-3.5344;-8.8143;25557;2021-05-03 21:21:42:929
2.3816;-3.5344;-8.8143;25607;2021-05-03 21:21:42:979
2.3744;-3.5536;-8.8406;25656;2021-05-03 21:21:43:028
2.3744;-3.5536;-8.8406;25706;2021-05-03 21:21:43:078
2.3361;-3.5249;-8.7927;25756;2021-05-03 21:21:43:128
2.3361;-3.5249;-8.7927;25806;2021-05-03 21:21:43:178
2.3864;-3.5464;-8.8358;25857;2021-05-03 21:21:43:229
2.3864;-3.5464;-8.8358;25907;2021-05-03 21:21:43:279
2.3912;-3.5416;-8.8238;25956;2021-05-03 21:21:43:328
2.3912;-3.5416;-8.8238;26006;2021-05-03 21:21:43:378
2.3816;-3.5823;-8.8214;26057;2021-05-03 21:21:43:429
2.3816;-3.5823;-8.8214;26107;2021-05-03 21:21:43:479
2.3768;-3.556;-8.8238;26157;2021-05-03 21:21:43:529
2.3768;-3.556;-8.8238;26207;2021-05-03 21:21:43:579
2.3864;-3.5871;-8.8645;26256;2021-05-03 21:21:43:628
2.3864;-3.5871;-8.8645;26306;2021-05-03 21:21:43:678
2.3649;-3.5416;-8.831;26357;2021-05-03 21:21:43:729
2.3649;-3.5416;-8.831;26407;2021-05-03 21:21:43:779
2.3697;-3.5536;-8.8023;26456;2021-05-03 21:21:43:828
2.3697;-3.5536;-8.8023;26506;2021-05-03 21:21:43:878
2.4032;-3.5751;-8.7831;26557;2021-05-03 21:21:43:929
2.4032;-3.5751;-8.7831;26607;2021-05-03 21:21:43:979
2.3768;-3.5775;-8.8095;26656;2021-05-03 21:21:44:028
2.3768;-3.5775;-8.8095;26706;2021-05-03 21:21:44:078
2.3888;-3.544;-8.7831;26756;2021-05-03 21:21:44:128
2.3888;-3.544;-8.7831;26806;2021-05-03 21:21:44:178
2.396;-3.5632;-8.7616;26856;2021-05-03 21:21:44:228
2.396;-3.5632;-8.7616;26906;2021-05-03 21:21:44:278
2.3936;-3.6158;-8.819;26957;2021-05-03 21:21:44:329
2.3936;-3.6158;-8.819;27007;2021-05-03 21:21:44:379
2.4056;-3.5727;-8.8262;27056;2021-05-03 21:21:44:428
2.4056;-3.5727;-8.8262;27106;2021-05-03 21:21:44:478
2.3912;-3.5967;-8.8166;27157;2021-05-03 21:21:44:529
2.3912;-3.5967;-8.8166;27206;2021-05-03 21:21:44:578
2.3936;-3.5943;-8.8286;27256;2021-05-03 21:21:44:628
2.3936;-3.5943;-8.8286;27306;2021-05-03 21:21:44:678
2.396;-3.6015;-8.8717;27357;2021-05-03 21:21:44:729
2.396;-3.6015;-8.8717;27407;2021-05-03 21:21:44:779
2.3505;-3.556;-8.8286;27457;2021-05-03 21:21:44:829
2.3505;-3.556;-8.8286;27507;2021-05-03 21:21:44:879
2.3601;-3.544;-8.7975;27556;2021-05-03 21:21:44:928
2.3601;-3.544;-8.7975;27606;2021-05-03 21:21:44:978
2.3888;-3.5488;-8.8095;27657;2021-05-03 21:21:45:029
2.3888;-3.5488;-8.8095;27707;2021-05-03 21:21:45:079
2.3744;-3.5799;-8.8071;27756;2021-05-03 21:21:45:128
2.3744;-3.5799;-8.8071;27806;2021-05-03 21:21:45:178
2.3433;-3.5249;-8.8023;27856;2021-05-03 21:21:45:228
2.3433;-3.5249;-8.8023;27906;2021-05-03 21:21:45:278
2.384;-3.5847;-8.8334;27957;2021-05-03 21:21:45:329
2.384;-3.5847;-8.8334;28007;2021-05-03 21:21:45:379
2.3864;-3.5727;-8.8262;28057;2021-05-03 21:21:45:429
2.3864;-3.5727;-8.8262;28107;2021-05-03 21:21:45:479
2.3505;-3.5129;-8.8071;28156;2021-05-03 21:21:45:528
2.3505;-3.5129;-8.8071;28206;2021-05-03 21:21:45:578
2.4032;-3.568;-8.7975;28256;2021-05-03 21:21:45:628
2.4032;-3.568;-8.7975;28306;2021-05-03 21:21:45:678
2.3984;-3.5584;-8.8214;28356;2021-05-03 21:21:45:728
2.3984;-3.5584;-8.8214;28407;2021-05-03 21:21:45:779
2.3649;-3.5632;-8.8262;28456;2021-05-03 21:21:45:828
2.3649;-3.5632;-8.8262;28506;2021-05-03 21:21:45:878
2.4128;-3.5608;-8.8765;28556;2021-05-03 21:21:45:928
2.4128;-3.5608;-8.8765;28606;2021-05-03 21:21:45:978
2.3697;-3.5273;-8.8286;28657;2021-05-03 21:21:46:029
2.3697;-3.5273;-8.8286;28706;2021-05-03 21:21:46:078
2.3744;-3.5368;-8.8095;28757;2021-05-03 21:21:46:129
2.3744;-3.5368;-8.8095;28807;2021-05-03 21:21:46:179
2.3984;-3.5488;-8.7975;28856;2021-05-03 21:21:46:228
2.3984;-3.5488;-8.7975;28906;2021-05-03 21:21:46:278
2.3888;-3.568;-8.8286;28956;2021-05-03 21:21:46:328
2.3888;-3.568;-8.8286;29006;2021-05-03 21:21:46:378
2.4104;-3.5344;-8.843;29056;2021-05-03 21:21:46:428
2.4104;-3.5344;-8.843;29107;2021-05-03 21:21:46:479
2.396;-3.5225;-8.8071;29156;2021-05-03 21:21:46:528
2.396;-3.5225;-8.8071;29207;2021-05-03 21:21:46:579
2.3529;-3.5344;-8.7496;29256;2021-05-03 21:21:46:628
2.3529;-3.5344;-8.7496;29306;2021-05-03 21:21:46:678
2.3649;-3.5751;-8.8166;29357;2021-05-03 21:21:46:729
2.3649;-3.5751;-8.8166;29407;2021-05-03 21:21:46:779
2.3816;-3.5704;-8.8334;29456;2021-05-03 21:21:46:828
2.3816;-3.5704;-8.8334;29507;2021-05-03 21:21:46:879
2.3984;-3.5799;-8.8119;29556;2021-05-03 21:21:46:928
2.3984;-3.5799;-8.8119;29606;2021-05-03 21:21:46:978
2.396;-3.5536;-8.819;29656;2021-05-03 21:21:47:028
2.396;-3.5536;-8.819;29706;2021-05-03 21:21:47:078
2.3601;-3.5847;-8.7855;29757;2021-05-03 21:21:47:129
2.3601;-3.5847;-8.7855;29806;2021-05-03 21:21:47:178
2.3984;-3.6278;-8.8143;29856;2021-05-03 21:21:47:228
2.3984;-3.6278;-8.8143;29906;2021-05-03 21:21:47:278
2.4008;-3.623;-8.8023;29957;2021-05-03 21:21:47:329
2.4008;-3.623;-8.8023;30006;2021-05-03 21:21:47:378
2.3601;-3.568;-8.8262;30057;2021-05-03 21:21:47:429
2.3601;-3.568;-8.8262;30107;2021-05-03 21:21:47:479
2.4008;-3.6158;-8.7688;30157;2021-05-03 21:21:47:529
2.4008;-3.6158;-8.7688;30207;2021-05-03 21:21:47:579
2.4152;-3.568;-8.8286;30256;2021-05-03 21:21:47:628
2.4152;-3.568;-8.8286;30306;2021-05-03 21:21:47:678
2.396;-3.5608;-8.7927;30356;2021-05-03 21:21:47:728
2.396;-3.5608;-8.7927;30406;2021-05-03 21:21:47:778
2.3577;-3.5368;-8.7783;30457;2021-05-03 21:21:47:829
2.3577;-3.5368;-8.7783;30507;2021-05-03 21:21:47:879
2.4175;-3.5656;-8.831;30556;2021-05-03 21:21:47:928
2.4175;-3.5656;-8.831;30607;2021-05-03 21:21:47:979
2.3912;-3.5512;-8.8166;30656;2021-05-03 21:21:48:028
2.3912;-3.5512;-8.8166;30706;2021-05-03 21:21:48:078
2.384;-3.5727;-8.7951;30756;2021-05-03 21:21:48:128
2.384;-3.5727;-8.7951;30806;2021-05-03 21:21:48:178
2.3936;-3.5344;-8.819;30857;2021-05-03 21:21:48:229
2.3936;-3.5344;-8.819;30907;2021-05-03 21:21:48:279
2.3984;-3.5344;-8.8166;30956;2021-05-03 21:21:48:328
2.3984;-3.5344;-8.8166;31006;2021-05-03 21:21:48:378
2.3457;-3.5225;-8.7951;31056;2021-05-03 21:21:48:428
2.3457;-3.5225;-8.7951;31106;2021-05-03 21:21:48:478
2.408;-3.5464;-8.831;31156;2021-05-03 21:21:48:528
2.408;-3.5464;-8.831;31206;2021-05-03 21:21:48:578
2.3553;-3.5392;-8.8406;31257;2021-05-03 21:21:48:629
2.3553;-3.5392;-8.8406;31307;2021-05-03 21:21:48:679
2.3744;-3.5584;-8.8286;31357;2021-05-03 21:21:48:729
2.3744;-3.5584;-8.8286;31406;2021-05-03 21:21:48:778
2.3888;-3.4913;-8.8071;31456;2021-05-03 21:21:48:828
2.3888;-3.4913;-8.8071;31506;2021-05-03 21:21:48:878
2.4152;-3.5847;-8.8573;31557;2021-05-03 21:21:48:929
2.4152;-3.5847;-8.8573;31607;2021-05-03 21:21:48:979
2.2978;-3.4147;-8.8526;31657;2021-05-03 21:21:49:029
2.2978;-3.4147;-8.8526;31707;2021-05-03 21:21:49:079
2.2188;-3.4794;-8.9052;31756;2021-05-03 21:21:49:128
2.2188;-3.4794;-8.9052;31806;2021-05-03 21:21:49:178
2.2787;-3.5225;-8.9268;31856;2021-05-03 21:21:49:228
2.2787;-3.5225;-8.9268;31907;2021-05-03 21:21:49:279
2.3649;-3.6685;-8.855;31957;2021-05-03 21:21:49:329
2.3649;-3.6685;-8.855;32007;2021-05-03 21:21:49:379
2.3122;-3.5512;-8.8334;32056;2021-05-03 21:21:49:428
2.3122;-3.5512;-8.8334;32106;2021-05-03 21:21:49:478
2.3792;-3.5129;-8.7927;32156;2021-05-03 21:21:49:528
2.3792;-3.5129;-8.7927;32207;2021-05-03 21:21:49:579
2.3361;-3.635;-8.8071;32257;2021-05-03 21:21:49:629
2.3361;-3.635;-8.8071;32307;2021-05-03 21:21:49:679
2.3409;-3.5775;-8.819;32356;2021-05-03 21:21:49:728
2.3409;-3.5775;-8.819;32406;2021-05-03 21:21:49:778
2.3314;-3.5416;-8.8095;32456;2021-05-03 21:21:49:828
2.3314;-3.5416;-8.8095;32507;2021-05-03 21:21:49:879
2.4223;-3.6134;-8.8071;32557;2021-05-03 21:21:49:929
2.4223;-3.6134;-8.8071;32607;2021-05-03 21:21:49:979
2.3146;-3.5488;-8.7233;32656;2021-05-03 21:21:50:028
2.3146;-3.5488;-8.7233;32707;2021-05-03 21:21:50:079
2.6043;-3.5344;-8.7736;32757;2021-05-03 21:21:50:129
2.6043;-3.5344;-8.7736;32807;2021-05-03 21:21:50:179
2.5947;-3.5153;-8.3019;32856;2021-05-03 21:21:50:228
2.5947;-3.5153;-8.3019;32906;2021-05-03 21:21:50:278
2.8724;-3.0269;-8.8406;32956;2021-05-03 21:21:50:328
2.8724;-3.0269;-8.8406;33006;2021-05-03 21:21:50:378
3.1478;-3.2112;-9.3362;33056;2021-05-03 21:21:50:428
3.1478;-3.2112;-9.3362;33106;2021-05-03 21:21:50:478
3.811;-3.7332;-8.1391;33157;2021-05-03 21:21:50:529
3.811;-3.7332;-8.1391;33206;2021-05-03 21:21:50:578
3.8469;-3.7858;-8.0673;33256;2021-05-03 21:21:50:628
3.8469;-3.7858;-8.0673;33306;2021-05-03 21:21:50:678
3.7439;-3.204;-8.2588;33357;2021-05-03 21:21:50:729
3.7439;-3.204;-8.2588;33407;2021-05-03 21:21:50:779
3.9881;-2.6294;-8.1295;33457;2021-05-03 21:21:50:829
3.9881;-2.6294;-8.1295;33506;2021-05-03 21:21:50:878
3.0807;-3.2495;-8.3067;33556;2021-05-03 21:21:50:928
3.7344;-5.0117;-8.6203;33606;2021-05-03 21:21:50:978
3.7344;-5.0117;-8.6203;33656;2021-05-03 21:21:51:028
6.6313;-7.3436;-8.2588;33706;2021-05-03 21:21:51:078
6.6313;-7.3436;-8.2588;33756;2021-05-03 21:21:51:128
3.8373;-7.6764;-6.8366;33806;2021-05-03 21:21:51:178
3.8373;-7.6764;-6.8366;33856;2021-05-03 21:21:51:228
2.1997;-7.4753;-5.3474;33906;2021-05-03 21:21:51:278
2.1997;-7.4753;-5.3474;33956;2021-05-03 21:21:51:328
2.5516;-8.6652;-4.6986;34006;2021-05-03 21:21:51:378
2.5516;-8.6652;-4.6986;34056;2021-05-03 21:21:51:428
1.3689;-7.3101;-4.3706;34106;2021-05-03 21:21:51:478
1.3689;-7.3101;-4.3706;34157;2021-05-03 21:21:51:529
-0.2664;-8.3204;-3.1065;34206;2021-05-03 21:21:51:578
-0.2664;-8.3204;-3.1065;34256;2021-05-03 21:21:51:628
-2.8353;-8.2271;-3.219;34306;2021-05-03 21:21:51:678
-2.8353;-8.2271;-3.219;34357;2021-05-03 21:21:51:729
-3.2567;-6.4075;-1.1887;34407;2021-05-03 21:21:51:779
-3.2567;-6.4075;-1.1887;34456;2021-05-03 21:21:51:828
-6.5966;-9.247;0.2789;34506;2021-05-03 21:21:51:878
-6.5966;-9.247;0.2789;34556;2021-05-03 21:21:51:928
-5.9119;-5.9406;0.6979;34606;2021-05-03 21:21:51:978
-5.9119;-5.9406;0.6979;34657;2021-05-03 21:21:52:029
-6.2231;-8.8137;-0.6572;34707;2021-05-03 21:21:52:079
-6.2231;-8.8137;-0.6572;34757;2021-05-03 21:21:52:129
-6.9653;-10.0108;-1.7059;34806;2021-05-03 21:21:52:178
-6.9653;-10.0108;-1.7059;34856;2021-05-03 21:21:52:228
-6.4147;-8.2774;-1.4617;34906;2021-05-03 21:21:52:278
-6.4147;-8.2774;-1.4617;34956;2021-05-03 21:21:52:328
-5.1242;-11.8351;1.8375;35006;2021-05-03 21:21:52:378
-5.1242;-11.8351;1.8375;35056;2021-05-03 21:21:52:428
-2.7731;-6.8791;0.3005;35107;2021-05-03 21:21:52:479
-2.7731;-6.8791;0.3005;35157;2021-05-03 21:21:52:529
-4.0492;-7.3292;-1.1791;35207;2021-05-03 21:21:52:579
-4.0492;-7.3292;-1.1791;35257;2021-05-03 21:21:52:629
-3.0245;-6.1681;-6.5685;35307;2021-05-03 21:21:52:679
-3.0245;-6.1681;-6.5685;35357;2021-05-03 21:21:52:729
-3.3621;-7.6453;-4.883;35407;2021-05-03 21:21:52:779
-3.3621;-7.6453;-4.883;35456;2021-05-03 21:21:52:828
-5.5216;-14.452;0.1616;35507;2021-05-03 21:21:52:879
-5.5216;-14.452;0.1616;35556;2021-05-03 21:21:52:928
-6.1537;-8.4904;0.8272;35606;2021-05-03 21:21:52:978
-6.1537;-8.4904;0.8272;35657;2021-05-03 21:21:53:029
-5.931;-6.9988;-0.5183;35707;2021-05-03 21:21:53:079
-5.931;-6.9988;-0.5183;35757;2021-05-03 21:21:53:129
-4.9374;-8.0427;-0.6213;35806;2021-05-03 21:21:53:178
-4.9374;-8.0427;-0.6213;35856;2021-05-03 21:21:53:228
-5.2343;-9.745;-1.2318;35906;2021-05-03 21:21:53:278
-5.2343;-9.745;-1.2318;35956;2021-05-03 21:21:53:328
-7.0324;-10.5255;-4.6459;36006;2021-05-03 21:21:53:378
-7.0324;-10.5255;-4.6459;36057;2021-05-03 21:21:53:429
-6.7594;-10.5758;0.7626;36107;2021-05-03 21:21:53:479
-6.7594;-10.5758;0.7626;36156;2021-05-03 21:21:53:528
-4.0683;-11.6675;1.9956;36206;2021-05-03 21:21:53:578
-4.0683;-11.6675;1.9956;36256;2021-05-03 21:21:53:628
-3.2471;-6.4362;-0.4776;36306;2021-05-03 21:21:53:678
-3.2471;-6.4362;-0.4776;36357;2021-05-03 21:21:53:729
-2.4906;-5.5719;-2.709;36407;2021-05-03 21:21:53:779
-2.4906;-5.5719;-2.709;36456;2021-05-03 21:21:53:828
-7.8272;-8.9932;-6.9707;36506;2021-05-03 21:21:53:878
-7.8272;-8.9932;-6.9707;36556;2021-05-03 21:21:53:928
-4.5903;-13.2046;0.7554;36607;2021-05-03 21:21:53:979
-4.5903;-13.2046;0.7554;36656;2021-05-03 21:21:54:028
-4.0013;-8.4856;0.7889;36707;2021-05-03 21:21:54:079
-4.0013;-8.4856;0.7889;36756;2021-05-03 21:21:54:128
-4.8201;-7.2478;-0.2454;36806;2021-05-03 21:21:54:178
-4.8201;-7.2478;-0.2454;36856;2021-05-03 21:21:54:228
-5.6844;-7.8392;-0.7865;36906;2021-05-03 21:21:54:278
-5.6844;-7.8392;-0.7865;36956;2021-05-03 21:21:54:328
-3.9798;-8.9262;-3.1568;37006;2021-05-03 21:21:54:378
-3.9798;-8.9262;-3.1568;37057;2021-05-03 21:21:54:429
-5.9765;-8.5527;-0.7985;37107;2021-05-03 21:21:54:479
-5.9765;-8.5527;-0.7985;37156;2021-05-03 21:21:54:528
-7.6668;-10.5854;0.0539;37207;2021-05-03 21:21:54:579
-7.6668;-10.5854;0.0539;37256;2021-05-03 21:21:54:628
-4.4706;-11.8399;0.5638;37306;2021-05-03 21:21:54:678
-4.4706;-11.8399;0.5638;37356;2021-05-03 21:21:54:728
-2.7467;-5.797;-0.8918;37406;2021-05-03 21:21:54:778
-2.7467;-5.797;-0.8918;37456;2021-05-03 21:21:54:828
-2.7467;-5.797;-0.8918;37506;2021-05-03 21:21:54:878
-4.6023;-6.4314;-0.9589;37557;2021-05-03 21:21:54:929
-5.7084;-7.4753;-7.8733;37607;2021-05-03 21:21:54:979
-5.7084;-7.4753;-7.8733;37656;2021-05-03 21:21:55:028
-5.7084;-7.4753;-7.8733;37706;2021-05-03 21:21:55:078
-0.9104;-8.8376;-5.6443;37756;2021-05-03 21:21:55:128
-0.9104;-8.8376;-5.6443;37806;2021-05-03 21:21:55:178
-3.398;-7.1233;0.4633;37857;2021-05-03 21:21:55:229
-3.398;-7.1233;0.4633;37907;2021-05-03 21:21:55:279
-7.4083;-9.0172;0.4154;37957;2021-05-03 21:21:55:329
-7.4083;-9.0172;0.4154;38007;2021-05-03 21:21:55:379
-5.1745;-7.1353;-0.5136;38056;2021-05-03 21:21:55:428
-5.1745;-7.1353;-0.5136;38107;2021-05-03 21:21:55:479
-3.8577;-7.8679;-0.4585;38156;2021-05-03 21:21:55:528
-3.8577;-7.8679;-0.4585;38206;2021-05-03 21:21:55:578
-4.88;-10.1041;-1.6771;38256;2021-05-03 21:21:55:628
-4.88;-10.1041;-1.6771;38306;2021-05-03 21:21:55:678
-9.1057;-9.6804;-0.978;38357;2021-05-03 21:21:55:729
-9.1057;-9.6804;-0.978;38406;2021-05-03 21:21:55:778
-5.6509;-11.5526;1.0906;38457;2021-05-03 21:21:55:829
-5.6509;-11.5526;1.0906;38506;2021-05-03 21:21:55:878
-3.2232;-8.512;1.555;38557;2021-05-03 21:21:55:929
-3.2232;-8.512;1.555;38607;2021-05-03 21:21:55:979
-2.7731;-6.1058;-0.6404;38656;2021-05-03 21:21:56:028
-2.7731;-6.1058;-0.6404;38706;2021-05-03 21:21:56:078
-1.2264;-7.5543;-5.4169;38757;2021-05-03 21:21:56:129
-1.2264;-7.5543;-5.4169;38806;2021-05-03 21:21:56:178
-4.9901;-10.1879;-6.9564;38857;2021-05-03 21:21:56:229
-4.9901;-10.1879;-6.9564;38906;2021-05-03 21:21:56:278
-4.042;-8.093;1.7561;38957;2021-05-03 21:21:56:329
-4.042;-8.093;1.7561;39007;2021-05-03 21:21:56:379
-6.0436;-12.5893;1.057;39057;2021-05-03 21:21:56:429
-6.0436;-12.5893;1.057;39107;2021-05-03 21:21:56:479
-3.6206;-6.4817;-0.2765;39156;2021-05-03 21:21:56:528
-3.6206;-6.4817;-0.2765;39206;2021-05-03 21:21:56:578
-5.5647;-8.2654;-0.5638;39256;2021-05-03 21:21:56:628
-5.5647;-8.2654;-0.5638;39306;2021-05-03 21:21:56:678
-7.097;-8.0595;-8.1415;39357;2021-05-03 21:21:56:729
-7.097;-8.0595;-8.1415;39407;2021-05-03 21:21:56:779
-7.1066;-10.5662;-0.0515;39456;2021-05-03 21:21:56:828
-7.1066;-10.5662;-0.0515;39506;2021-05-03 21:21:56:878
-0.2424;-9.5678;-5.223;39556;2021-05-03 21:21:56:928
-0.2424;-9.5678;-5.223;39606;2021-05-03 21:21:56:978
-3.8624;-14.4951;0.3819;39656;2021-05-03 21:21:57:028
-3.8624;-14.4951;0.3819;39706;2021-05-03 21:21:57:078
-1.5496;-5.6892;0.152;39757;2021-05-03 21:21:57:129
-1.5496;-5.6892;0.152;39807;2021-05-03 21:21:57:179
-4.5424;-6.7211;-1.3611;39856;2021-05-03 21:21:57:228
-4.5424;-6.7211;-1.3611;39907;2021-05-03 21:21:57:279
-5.1769;-9.812;-8.5748;39956;2021-05-03 21:21:57:328
-5.1769;-9.812;-8.5748;40007;2021-05-03 21:21:57:379
-4.6956;-10.6452;-2.563;40057;2021-05-03 21:21:57:429
-4.6956;-10.6452;-2.563;40107;2021-05-03 21:21:57:479
-3.24;-7.164;0.9972;40157;2021-05-03 21:21:57:529
-3.24;-7.164;0.9972;40207;2021-05-03 21:21:57:579
-4.8536;-8.6604;0.0443;40256;2021-05-03 21:21:57:628
-4.8536;-8.6604;0.0443;40306;2021-05-03 21:21:57:678
-5.7251;-8.0738;-0.346;40357;2021-05-03 21:21:57:729
-5.7251;-8.0738;-0.346;40406;2021-05-03 21:21:57:778
-5.603;-7.5591;-0.6907;40456;2021-05-03 21:21:57:828
-5.603;-7.5591;-0.6907;40507;2021-05-03 21:21:57:879
-4.5879;-8.7825;-2.3236;40556;2021-05-03 21:21:57:928
-4.5879;-8.7825;-2.3236;40606;2021-05-03 21:21:57:978
-6.0986;-9.2446;-0.583;40657;2021-05-03 21:21:58:029
-6.0986;-9.2446;-0.583;40707;2021-05-03 21:21:58:079
-3.7523;-8.3372;0.401;40756;2021-05-03 21:21:58:128
-3.7523;-8.3372;0.401;40806;2021-05-03 21:21:58:178
-3.0748;-14.7704;0.8607;40856;2021-05-03 21:21:58:228
-3.0748;-14.7704;0.8607;40907;2021-05-03 21:21:58:279
-1.9447;-6.1154;0.6907;40956;2021-05-03 21:21:58:328
-1.9447;-6.1154;0.6907;41006;2021-05-03 21:21:58:378
-4.8513;-6.101;-2.0171;41056;2021-05-03 21:21:58:428
-4.8513;-6.101;-2.0171;41106;2021-05-03 21:21:58:478
-5.8137;-8.9477;-9.8055;41157;2021-05-03 21:21:58:529
-5.8137;-8.9477;-9.8055;41207;2021-05-03 21:21:58:579
-3.0053;-11.4281;-0.6404;41256;2021-05-03 21:21:58:628
-3.0053;-11.4281;-0.6404;41306;2021-05-03 21:21:58:678
-3.0652;-8.0571;1.4234;41357;2021-05-03 21:21:58:729
-3.0652;-8.0571;1.4234;41407;2021-05-03 21:21:58:779
-5.785;-7.856;-0.2143;41457;2021-05-03 21:21:58:829
-5.785;-7.856;-0.2143;41507;2021-05-03 21:21:58:879
-6.3309;-8.6125;-0.3077;41556;2021-05-03 21:21:58:928
-6.3309;-8.6125;-0.3077;41607;2021-05-03 21:21:58:979
-4.8417;-7.9493;-0.9469;41656;2021-05-03 21:21:59:028
-4.8417;-7.9493;-0.9469;41706;2021-05-03 21:21:59:078
-4.2671;-10.2526;-5.1894;41757;2021-05-03 21:21:59:129
-4.2671;-10.2526;-5.1894;41808;2021-05-03 21:21:59:180
-6.4051;-8.7299;-0.152;41856;2021-05-03 21:21:59:228
-6.4051;-8.7299;-0.152;41906;2021-05-03 21:21:59:278
-4.3724;-12.2661;1.2582;41957;2021-05-03 21:21:59:329
-4.3724;-12.2661;1.2582;42006;2021-05-03 21:21:59:378
-2.7587;-7.5998;0.4082;42057;2021-05-03 21:21:59:429
-2.7587;-7.5998;0.4082;42107;2021-05-03 21:21:59:479
-3.7643;-5.3421;-1.0235;42156;2021-05-03 21:21:59:528
-3.7643;-5.3421;-1.0235;42206;2021-05-03 21:21:59:578
-3.6134;-7.7841;-6.7505;42256;2021-05-03 21:21:59:628
-3.6134;-7.7841;-6.7505;42306;2021-05-03 21:21:59:678
-5.208;-8.9693;-3.7218;42357;2021-05-03 21:21:59:729
-5.208;-8.9693;-3.7218;42407;2021-05-03 21:21:59:779
-3.3477;-9.1943;1.1169;42456;2021-05-03 21:21:59:828
-3.3477;-9.1943;1.1169;42506;2021-05-03 21:21:59:878
-5.299;-9.4984;0.7147;42557;2021-05-03 21:21:59:929
-5.299;-9.4984;0.7147;42607;2021-05-03 21:21:59:979
-5.105;-7.2814;-0.401;42656;2021-05-03 21:22:00:028
-5.105;-7.2814;-0.401;42706;2021-05-03 21:22:00:078
-4.0229;-8.1864;-0.8416;42757;2021-05-03 21:22:00:129
-4.0229;-8.1864;-0.8416;42807;2021-05-03 21:22:00:179
-5.0452;-9.7163;-1.7322;42857;2021-05-03 21:22:00:229
-5.0452;-9.7163;-1.7322;42907;2021-05-03 21:22:00:279
-8.8424;-10.1736;-1.9644;42956;2021-05-03 21:22:00:328
-8.8424;-10.1736;-1.9644;43006;2021-05-03 21:22:00:378
-4.2192;-8.9094;0.3148;43056;2021-05-03 21:22:00:428
-4.2192;-8.9094;0.3148;43106;2021-05-03 21:22:00:478
-3.5344;-10.2526;1.3372;43156;2021-05-03 21:22:00:528
-3.5344;-10.2526;1.3372;43206;2021-05-03 21:22:00:578
-3.3381;-7.0204;-0.9613;43256;2021-05-03 21:22:00:628
-3.3381;-7.0204;-0.9613;43306;2021-05-03 21:22:00:678
-1.8441;-6.6373;-4.6866;43357;2021-05-03 21:22:00:729
-1.8441;-6.6373;-4.6866;43407;2021-05-03 21:22:00:779
-6.5416;-9.0627;-6.2979;43456;2021-05-03 21:22:00:828
-6.5416;-9.0627;-6.2979;43506;2021-05-03 21:22:00:878
-4.8297;-12.4002;1.3898;43557;2021-05-03 21:22:00:929
-4.8297;-12.4002;1.3898;43607;2021-05-03 21:22:00:979
-1.9351;-4.935;1.3396;43656;2021-05-03 21:22:01:028
-1.9351;-4.935;1.3396;43706;2021-05-03 21:22:01:078
-6.939;-9.3835;0.2622;43757;2021-05-03 21:22:01:129
-6.939;-9.3835;0.2622;43807;2021-05-03 21:22:01:179
-6.5272;-7.6213;-0.5878;43856;2021-05-03 21:22:01:228
-6.5272;-7.6213;-0.5878;43906;2021-05-03 21:22:01:278
-4.619;-7.9326;-1.2749;43957;2021-05-03 21:22:01:329
-4.619;-7.9326;-1.2749;44007;2021-05-03 21:22:01:379
-2.9311;-9.1943;-1.6795;44056;2021-05-03 21:22:01:428
-2.9311;-9.1943;-1.6795;44107;2021-05-03 21:22:01:479
-7.8703;-11.3156;-1.7921;44156;2021-05-03 21:22:01:528
-7.8703;-11.3156;-1.7921;44206;2021-05-03 21:22:01:578
-3.8744;-8.3612;0.2885;44256;2021-05-03 21:22:01:628
-3.8744;-8.3612;0.2885;44306;2021-05-03 21:22:01:678
-3.5991;-9.6899;0.0156;44357;2021-05-03 21:22:01:729
-3.5991;-9.6899;0.0156;44407;2021-05-03 21:22:01:779
-3.1993;-6.0029;-0.1257;44457;2021-05-03 21:22:01:829
-3.1993;-6.0029;-0.1257;44507;2021-05-03 21:22:01:879
-3.374;-6.4889;-1.1408;44556;2021-05-03 21:22:01:928
-3.374;-6.4889;-1.1408;44606;2021-05-03 21:22:01:978
-5.6389;-9.7881;-4.9811;44657;2021-05-03 21:22:02:029
-5.6389;-9.7881;-4.9811;44707;2021-05-03 21:22:02:079
-2.5672;-11.7106;0.6189;44756;2021-05-03 21:22:02:128
-2.5672;-11.7106;0.6189;44806;2021-05-03 21:22:02:178
-6.7499;-9.7211;1.0618;44857;2021-05-03 21:22:02:229
-6.7499;-9.7211;1.0618;44907;2021-05-03 21:22:02:279
-5.433;-5.9957;-0.3292;44957;2021-05-03 21:22:02:329
-5.433;-5.9957;-0.3292;45006;2021-05-03 21:22:02:378
-5.1409;-8.5718;-0.844;45056;2021-05-03 21:22:02:428
-5.1409;-8.5718;-0.844;45106;2021-05-03 21:22:02:478
-2.6199;-10.5207;-7.6243;45157;2021-05-03 21:22:02:529
-2.6199;-10.5207;-7.6243;45207;2021-05-03 21:22:02:579
-6.8025;-8.6987;-2.2853;45256;2021-05-03 21:22:02:628
-6.8025;-8.6987;-2.2853;45306;2021-05-03 21:22:02:678
-6.2926;-9.9964;0.3292;45356;2021-05-03 21:22:02:728
-6.2926;-9.9964;0.3292;45406;2021-05-03 21:22:02:778
-3.374;-9.2733;0.9254;45457;2021-05-03 21:22:02:829
-3.374;-9.2733;0.9254;45507;2021-05-03 21:22:02:879
-1.7172;-6.702;1.2366;45556;2021-05-03 21:22:02:928
-1.7172;-6.702;1.2366;45606;2021-05-03 21:22:02:978
-2.1051;-8.7634;-4.4736;45657;2021-05-03 21:22:03:029
-2.1051;-8.7634;-4.4736;45707;2021-05-03 21:22:03:079
-3.5344;-7.5471;-4.7297;45756;2021-05-03 21:22:03:128
-3.5344;-7.5471;-4.7297;45806;2021-05-03 21:22:03:178
-6.3859;-11.464;-0.6404;45856;2021-05-03 21:22:03:228
-6.3859;-11.464;-0.6404;45907;2021-05-03 21:22:03:279
-3.0867;-10.4441;1.5933;45956;2021-05-03 21:22:03:328
-3.0867;-10.4441;1.5933;46006;2021-05-03 21:22:03:378
-3.7954;-7.4609;0.0826;46056;2021-05-03 21:22:03:428
-3.7954;-7.4609;0.0826;46106;2021-05-03 21:22:03:478
-5.8089;-7.5064;-0.231;46157;2021-05-03 21:22:03:529
-5.8089;-7.5064;-0.231;46207;2021-05-03 21:22:03:579
-6.0172;-7.5064;-4.476;46256;2021-05-03 21:22:03:628
-6.0172;-7.5064;-4.476;46306;2021-05-03 21:22:03:678
-5.2463;-8.1217;-0.8344;46356;2021-05-03 21:22:03:728
-5.2463;-8.1217;-0.8344;46406;2021-05-03 21:22:03:778
-5.5001;-12.4648;0.3891;46456;2021-05-03 21:22:03:828
-5.5001;-12.4648;0.3891;46507;2021-05-03 21:22:03:879
-1.5712;-11.5526;0.5183;46557;2021-05-03 21:22:03:929
-1.5712;-11.5526;0.5183;46606;2021-05-03 21:22:03:978
0.1215;-6.8193;-0.7745;46656;2021-05-03 21:22:04:028
0.1215;-6.8193;-0.7745;46707;2021-05-03 21:22:04:079
-5.6318;-8.3228;-3.863;46757;2021-05-03 21:22:04:129
-5.6318;-8.3228;-3.863;46807;2021-05-03 21:22:04:179
-5.0619;-7.1257;-3.8439;46856;2021-05-03 21:22:04:228
-5.0619;-7.1257;-3.8439;46906;2021-05-03 21:22:04:278
-0.185;-9.7258;-5.1104;46956;2021-05-03 21:22:04:328
-0.185;-9.7258;-5.1104;47006;2021-05-03 21:22:04:378
-3.5704;-11.8088;-0.9517;47057;2021-05-03 21:22:04:429
-3.5704;-11.8088;-0.9517;47107;2021-05-03 21:22:04:479
-6.5799;-10.7314;1.4976;47157;2021-05-03 21:22:04:529
-6.5799;-10.7314;1.4976;47207;2021-05-03 21:22:04:579
-6.3572;-6.8193;0.8464;47256;2021-05-03 21:22:04:628
-6.3572;-6.8193;0.8464;47306;2021-05-03 21:22:04:678
-7.3604;-8.4449;-0.5351;47356;2021-05-03 21:22:04:728
-7.3604;-8.4449;-0.5351;47407;2021-05-03 21:22:04:779
-4.9805;-9.101;-2.2565;47457;2021-05-03 21:22:04:829
-4.9805;-9.101;-2.2565;47507;2021-05-03 21:22:04:879
-5.4953;-9.5654;-0.7338;47556;2021-05-03 21:22:04:928
-5.4953;-9.5654;-0.7338;47606;2021-05-03 21:22:04:978
-1.9614;-10.7218;-3.9085;47656;2021-05-03 21:22:05:028
-1.9614;-10.7218;-3.9085;47706;2021-05-03 21:22:05:078
-6.1585;-12.3475;-0.1592;47756;2021-05-03 21:22:05:128
-6.1585;-12.3475;-0.1592;47806;2021-05-03 21:22:05:178
-4.4083;-8.1744;0.6931;47856;2021-05-03 21:22:05:228
-4.4083;-8.1744;0.6931;47906;2021-05-03 21:22:05:278
-3.6182;-6.5296;0.3915;47956;2021-05-03 21:22:05:328
-3.6182;-6.5296;0.3915;48007;2021-05-03 21:22:05:379
-1.7484;-7.3987;-3.1783;48057;2021-05-03 21:22:05:429
-1.7484;-7.3987;-3.1783;48107;2021-05-03 21:22:05:479
-7.9829;-9.5128;-7.3059;48156;2021-05-03 21:22:05:528
-7.9829;-9.5128;-7.3059;48206;2021-05-03 21:22:05:578
-5.0955;-13.3363;1.579;48256;2021-05-03 21:22:05:628
-5.0955;-13.3363;1.579;48306;2021-05-03 21:22:05:678
-3.7667;-7.9565;0.9421;48356;2021-05-03 21:22:05:728
-3.7667;-7.9565;0.9421;48407;2021-05-03 21:22:05:779
-4.6549;-7.2598;-0.1688;48457;2021-05-03 21:22:05:829
-4.6549;-7.2598;-0.1688;48506;2021-05-03 21:22:05:878
-3.6972;-9.0411;-3.705;48556;2021-05-03 21:22:05:928
-3.6972;-9.0411;-3.705;48606;2021-05-03 21:22:05:978
-5.5863;-9.2159;-0.9972;48656;2021-05-03 21:22:06:028
-5.5863;-9.2159;-0.9972;48706;2021-05-03 21:22:06:078
-7.3149;-9.757;-2.3739;48757;2021-05-03 21:22:06:129
-7.3149;-9.757;-2.3739;48807;2021-05-03 21:22:06:179
-3.781;-7.1976;0.5255;48856;2021-05-03 21:22:06:228
-3.781;-7.1976;0.5255;48906;2021-05-03 21:22:06:278
-2.9119;-11.251;2.3595;48956;2021-05-03 21:22:06:328
-2.9119;-11.251;2.3595;49006;2021-05-03 21:22:06:378
-2.73;-6.4242;-0.1089;49056;2021-05-03 21:22:06:428
-2.73;-6.4242;-0.1089;49107;2021-05-03 21:22:06:479
-3.532;-5.4977;-0.1281;49156;2021-05-03 21:22:06:528
-3.532;-5.4977;-0.1281;49206;2021-05-03 21:22:06:578
-6.9103;-10.8846;-3.9971;49256;2021-05-03 21:22:06:628
-6.9103;-10.8846;-3.9971;49306;2021-05-03 21:22:06:678
-1.9758;-8.1217;0.4944;49357;2021-05-03 21:22:06:729
-1.9758;-8.1217;0.4944;49407;2021-05-03 21:22:06:779
-4.789;-9.6157;0.6979;49456;2021-05-03 21:22:06:828
-4.789;-9.6157;0.6979;49506;2021-05-03 21:22:06:878
-6.1848;-8.6461;-0.2143;49556;2021-05-03 21:22:06:928
-6.1848;-8.6461;-0.2143;49606;2021-05-03 21:22:06:978
-4.8656;-7.4059;-0.9325;49656;2021-05-03 21:22:07:028
-4.8656;-7.4059;-0.9325;49706;2021-05-03 21:22:07:078
-3.1466;-9.3404;-2.9772;49756;2021-05-03 21:22:07:128
-3.1466;-9.3404;-2.9772;49806;2021-05-03 21:22:07:178
-6.6397;-8.8975;-1.7274;49857;2021-05-03 21:22:07:229
-6.6397;-8.8975;-1.7274;49907;2021-05-03 21:22:07:279
-7.528;-9.1512;0.9134;49956;2021-05-03 21:22:07:328
-7.528;-9.1512;0.9134;50006;2021-05-03 21:22:07:378
-5.9693;-14.373;0.8368;50056;2021-05-03 21:22:07:428
-5.9693;-14.373;0.8368;50106;2021-05-03 21:22:07:478
-2.5313;-5.7275;-0.1664;50157;2021-05-03 21:22:07:529
-2.5313;-5.7275;-0.1664;50207;2021-05-03 21:22:07:579
-3.0819;-6.3285;0.3819;50257;2021-05-03 21:22:07:629
-3.0819;-6.3285;0.3819;50307;2021-05-03 21:22:07:679
-5.2654;-10.3531;-10.1766;50356;2021-05-03 21:22:07:728
-5.2654;-10.3531;-10.1766;50406;2021-05-03 21:22:07:778
-2.2057;-7.1545;-2.0937;50456;2021-05-03 21:22:07:828
-2.2057;-7.1545;-2.0937;50507;2021-05-03 21:22:07:879
-3.6805;-10.3986;0.3651;50556;2021-05-03 21:22:07:928
-3.6805;-10.3986;0.3651;50606;2021-05-03 21:22:07:978
-6.0388;-9.6756;0.4369;50657;2021-05-03 21:22:08:029
-6.0388;-9.6756;0.4369;50707;2021-05-03 21:22:08:079
-4.5831;-7.6046;-0.4441;50757;2021-05-03 21:22:08:129
-4.5831;-7.6046;-0.4441;50807;2021-05-03 21:22:08:179
-4.4442;-7.7291;-0.5734;50856;2021-05-03 21:22:08:228
-4.4442;-7.7291;-0.5734;50907;2021-05-03 21:22:08:279
-4.8249;-9.6468;-2.5845;50956;2021-05-03 21:22:08:328
-4.8249;-9.6468;-2.5845;51006;2021-05-03 21:22:08:378
-7.7363;-8.4569;-3.1639;51056;2021-05-03 21:22:08:428
-7.7363;-8.4569;-3.1639;51106;2021-05-03 21:22:08:478
-6.0843;-10.7266;0.6093;51156;2021-05-03 21:22:08:528
-6.0843;-10.7266;0.6093;51207;2021-05-03 21:22:08:579
-1.8322;-10.8272;2.2901;51257;2021-05-03 21:22:08:629
-1.8322;-10.8272;2.2901;51307;2021-05-03 21:22:08:679
-2.0022;-5.4115;-1.4066;51357;2021-05-03 21:22:08:729
-2.0022;-5.4115;-1.4066;51406;2021-05-03 21:22:08:778
-2.8329;-7.2885;-3.2908;51456;2021-05-03 21:22:08:828
-2.8329;-7.2885;-3.2908;51506;2021-05-03 21:22:08:878
-3.7236;-8.8544;-4.2437;51556;2021-05-03 21:22:08:928
-3.7236;-8.8544;-4.2437;51607;2021-05-03 21:22:08:979
-4.643;-11.0259;-4.7585;51657;2021-05-03 21:22:09:029
-4.643;-11.0259;-4.7585;51706;2021-05-03 21:22:09:078
-1.0876;-5.603;1.8352;51756;2021-05-03 21:22:09:128
-1.0876;-5.603;1.8352;51806;2021-05-03 21:22:09:178
-3.9869;-8.7179;0.4848;51856;2021-05-03 21:22:09:228
-3.9869;-8.7179;0.4848;51907;2021-05-03 21:22:09:279
-5.9167;-8.1457;-0.3292;51957;2021-05-03 21:22:09:329
-5.9167;-8.1457;-0.3292;52007;2021-05-03 21:22:09:379
-6.4985;-7.777;-0.4345;52057;2021-05-03 21:22:09:429
-6.4985;-7.777;-0.4345;52106;2021-05-03 21:22:09:478
-4.7315;-9.4697;-8.0625;52156;2021-05-03 21:22:09:528
-4.7315;-9.4697;-8.0625;52206;2021-05-03 21:22:09:578
-5.1817;-10.3483;0.3627;52257;2021-05-03 21:22:09:629
-5.1817;-10.3483;0.3627;52307;2021-05-03 21:22:09:679
-3.24;-9.2015;-0.0108;52356;2021-05-03 21:22:09:728
-3.24;-9.2015;-0.0108;52406;2021-05-03 21:22:09:778
-2.4882;-12.2996;1.306;52456;2021-05-03 21:22:09:828
-2.4882;-12.2996;1.306;52507;2021-05-03 21:22:09:879
-2.3469;-6.35;0.2167;52557;2021-05-03 21:22:09:929
-2.3469;-6.35;0.2167;52606;2021-05-03 21:22:09:978
-5.3732;-6.9797;-2.9724;52656;2021-05-03 21:22:10:028
-5.3732;-6.9797;-2.9724;52706;2021-05-03 21:22:10:078
-6.8408;-8.4952;-6.0609;52756;2021-05-03 21:22:10:128
-6.8408;-8.4952;-6.0609;52807;2021-05-03 21:22:10:179
-1.6909;-9.678;-4.8255;52857;2021-05-03 21:22:10:229
-1.6909;-9.678;-4.8255;52906;2021-05-03 21:22:10:278
-2.8066;-8.7777;1.5814;52956;2021-05-03 21:22:10:328
-2.8066;-8.7777;1.5814;53006;2021-05-03 21:22:10:378
-4.9327;-9.2494;0.3819;53056;2021-05-03 21:22:10:428
-4.9327;-9.2494;0.3819;53106;2021-05-03 21:22:10:478
-5.7802;-7.1952;-0.0012;53157;2021-05-03 21:22:10:529
-5.7802;-7.1952;-0.0012;53206;2021-05-03 21:22:10:578
-7.0012;-8.2821;-0.3962;53256;2021-05-03 21:22:10:628
-7.0012;-8.2821;-0.3962;53307;2021-05-03 21:22:10:679
-6.3285;-8.7801;-0.5854;53357;2021-05-03 21:22:10:729
-6.3285;-8.7801;-0.5854;53407;2021-05-03 21:22:10:779
-6.1992;-10.2789;-0.1185;53456;2021-05-03 21:22:10:828
-6.1992;-10.2789;-0.1185;53506;2021-05-03 21:22:10:878
-2.9479;-9.156;-0.6309;53557;2021-05-03 21:22:10:929
-2.9479;-9.156;-0.6309;53606;2021-05-03 21:22:10:978
-4.4969;-13.2022;0.2454;53656;2021-05-03 21:22:11:028
-4.4969;-13.2022;0.2454;53707;2021-05-03 21:22:11:079
-2.6486;-6.6996;0.4202;53757;2021-05-03 21:22:11:129
-2.6486;-6.6996;0.4202;53806;2021-05-03 21:22:11:178
-4.3389;-5.5264;-1.8064;53857;2021-05-03 21:22:11:229
-4.3389;-5.5264;-1.8064;53907;2021-05-03 21:22:11:279
-4.4538;-8.0595;-9.6211;53956;2021-05-03 21:22:11:328
-4.4538;-8.0595;-9.6211;54006;2021-05-03 21:22:11:378
-2.1051;-8.4833;-1.9692;54056;2021-05-03 21:22:11:428
-2.1051;-8.4833;-1.9692;54106;2021-05-03 21:22:11:478
-2.7539;-8.0355;0.6812;54156;2021-05-03 21:22:11:528
-2.7539;-8.0355;0.6812;54207;2021-05-03 21:22:11:579
-6.7642;-9.5966;0.5974;54257;2021-05-03 21:22:11:629
-6.7642;-9.5966;0.5974;54306;2021-05-03 21:22:11:678
-5.8305;-7.2694;-0.3053;54356;2021-05-03 21:22:11:728
-5.8305;-7.2694;-0.3053;54407;2021-05-03 21:22:11:779
-3.8696;-8.524;-1.3084;54457;2021-05-03 21:22:11:829
-3.8696;-8.524;-1.3084;54507;2021-05-03 21:22:11:879
-4.9877;-9.3404;-1.7466;54556;2021-05-03 21:22:11:928
-4.9877;-9.3404;-1.7466;54606;2021-05-03 21:22:11:978
-7.1664;-9.9246;-1.6197;54656;2021-05-03 21:22:12:028
-7.1664;-9.9246;-1.6197;54707;2021-05-03 21:22:12:079
-5.1864;-10.9373;0.492;54756;2021-05-03 21:22:12:128
-5.1864;-10.9373;0.492;54806;2021-05-03 21:22:12:178
-3.9103;-7.5232;-0.3891;54857;2021-05-03 21:22:12:229
-3.9103;-7.5232;-0.3891;54906;2021-05-03 21:22:12:278
-2.8473;-7.0611;0.1712;54956;2021-05-03 21:22:12:328
-2.8473;-7.0611;0.1712;55006;2021-05-03 21:22:12:378
-2.2057;-7.1401;-4.1192;55057;2021-05-03 21:22:12:429
-2.2057;-7.1401;-4.1192;55106;2021-05-03 21:22:12:478
-8.6628;-9.5726;-7.0641;55156;2021-05-03 21:22:12:528
-8.6628;-9.5726;-7.0641;55207;2021-05-03 21:22:12:579
-3.7882;-13.729;1.6484;55257;2021-05-03 21:22:12:629
-3.7882;-13.729;1.6484;55307;2021-05-03 21:22:12:679
-3.2376;-7.8057;0.7458;55356;2021-05-03 21:22:12:728
-3.2376;-7.8057;0.7458;55406;2021-05-03 21:22:12:778
-5.3564;-7.5112;-0.1089;55457;2021-05-03 21:22:12:829
-5.3564;-7.5112;-0.1089;55506;2021-05-03 21:22:12:878
-5.2152;-8.1912;-2.8766;55557;2021-05-03 21:22:12:929
-5.2152;-8.1912;-2.8766;55606;2021-05-03 21:22:12:978
-3.9319;-7.7051;-0.6524;55656;2021-05-03 21:22:13:028
-3.9319;-7.7051;-0.6524;55706;2021-05-03 21:22:13:078
-6.0436;-9.4409;-1.8352;55757;2021-05-03 21:22:13:129
-6.0436;-9.4409;-1.8352;55807;2021-05-03 21:22:13:179
-6.9007;-9.3691;0.5926;55857;2021-05-03 21:22:13:229
-6.9007;-9.3691;0.5926;55907;2021-05-03 21:22:13:279
-4.631;-11.2605;0.6764;55957;2021-05-03 21:22:13:329
-4.631;-11.2605;0.6764;56006;2021-05-03 21:22:13:378
-3.6589;-6.2519;-0.3747;56056;2021-05-03 21:22:13:428
-3.6589;-6.2519;-0.3747;56106;2021-05-03 21:22:13:478
-3.2352;-6.4338;0.9182;56156;2021-05-03 21:22:13:528
-3.2352;-6.4338;0.9182;56206;2021-05-03 21:22:13:578
-2.6127;-8.8496;-4.9404;56256;2021-05-03 21:22:13:628
-2.6127;-8.8496;-4.9404;56307;2021-05-03 21:22:13:679
-5.9981;-9.2015;-10.3896;56357;2021-05-03 21:22:13:729
-5.9981;-9.2015;-10.3896;56407;2021-05-03 21:22:13:779
-4.4801;-11.0618;1.8447;56457;2021-05-03 21:22:13:829
-4.4801;-11.0618;1.8447;56506;2021-05-03 21:22:13:878
-6.1848;-12.0027;0.7338;56557;2021-05-03 21:22:13:929
-6.1848;-12.0027;0.7338;56606;2021-05-03 21:22:13:978
-4.0564;-7.1617;-0.176;56657;2021-05-03 21:22:14:029
-4.0564;-7.1617;-0.176;56707;2021-05-03 21:22:14:079
-4.6046;-7.8823;-0.6213;56757;2021-05-03 21:22:14:129
-4.6046;-7.8823;-0.6213;56807;2021-05-03 21:22:14:179
-4.9662;-9.7211;-2.5774;56857;2021-05-03 21:22:14:229
-4.9662;-9.7211;-2.5774;56906;2021-05-03 21:22:14:278
-4.9662;-9.7211;-2.5774;56956;2021-05-03 21:22:14:328
-7.6022;-9.2781;-1.5766;57006;2021-05-03 21:22:14:378
-6.7451;-11.0905;0.5638;57057;2021-05-03 21:22:14:429
-6.7451;-11.0905;0.5638;57107;2021-05-03 21:22:14:479
-6.7451;-11.0905;0.5638;57157;2021-05-03 21:22:14:529
-2.9335;-11.3563;0.4465;57206;2021-05-03 21:22:14:578
-2.9335;-11.3563;0.4465;57256;2021-05-03 21:22:14:628
-1.303;-6.3213;1.1959;57307;2021-05-03 21:22:14:679
-1.303;-6.3213;1.1959;57357;2021-05-03 21:22:14:729
-4.3197;-6.2255;-2.0626;57407;2021-05-03 21:22:14:779
-4.3197;-6.2255;-2.0626;57457;2021-05-03 21:22:14:829
-6.4625;-10.3866;-9.8007;57506;2021-05-03 21:22:14:878
-6.4625;-10.3866;-9.8007;57556;2021-05-03 21:22:14:928
-3.8337;-12.4911;0.2741;57606;2021-05-03 21:22:14:978
-3.8337;-12.4911;0.2741;57656;2021-05-03 21:22:15:028
-2.0572;-6.8097;0.8751;57707;2021-05-03 21:22:15:079
-2.0572;-6.8097;0.8751;57757;2021-05-03 21:22:15:129
-4.5568;-6.6277;-0.3268;57806;2021-05-03 21:22:15:178
-4.5568;-6.6277;-0.3268;57856;2021-05-03 21:22:15:228
-5.8329;-8.4569;-0.3292;57906;2021-05-03 21:22:15:278
-5.8329;-8.4569;-0.3292;57956;2021-05-03 21:22:15:328
-4.2695;-8.9884;-3.0873;58006;2021-05-03 21:22:15:378
-4.2695;-8.9884;-3.0873;58056;2021-05-03 21:22:15:428
-5.6222;-7.4777;-0.99;58106;2021-05-03 21:22:15:478
-5.6222;-7.4777;-0.99;58156;2021-05-03 21:22:15:528
-7.4107;-9.599;-0.8487;58207;2021-05-03 21:22:15:579
-7.4107;-9.599;-0.8487;58256;2021-05-03 21:22:15:628
-4.303;-13.037;-0.1137;58307;2021-05-03 21:22:15:679
-4.303;-13.037;-0.1137;58357;2021-05-03 21:22:15:729
0.2604;-7.6166;0.4106;58406;2021-05-03 21:22:15:778
0.2604;-7.6166;0.4106;58456;2021-05-03 21:22:15:828
-2.2799;-7.777;-0.9589;58507;2021-05-03 21:22:15:879
-2.2799;-7.777;-0.9589;58557;2021-05-03 21:22:15:929
-6.3093;-6.9462;-5.9268;58606;2021-05-03 21:22:15:978
-6.3093;-6.9462;-5.9268;58656;2021-05-03 21:22:16:028
-5.3181;-8.5671;-2.4337;58706;2021-05-03 21:22:16:078
-5.3181;-8.5671;-2.4337;58756;2021-05-03 21:22:16:128
-4.4634;-12.3667;-0.5183;58806;2021-05-03 21:22:16:178
-4.4634;-12.3667;-0.5183;58856;2021-05-03 21:22:16:228
-4.7076;-9.0722;0.6428;58907;2021-05-03 21:22:16:279
-4.7076;-9.0722;0.6428;58957;2021-05-03 21:22:16:329
-5.4115;-7.9613;-0.2023;59006;2021-05-03 21:22:16:378
-5.4115;-7.9613;-0.2023;59056;2021-05-03 21:22:16:428
-6.1992;-8.1624;-0.5064;59107;2021-05-03 21:22:16:479
-6.1992;-8.1624;-0.5064;59157;2021-05-03 21:22:16:529
-5.9669;-7.8057;-0.7027;59207;2021-05-03 21:22:16:579
-5.9669;-7.8057;-0.7027;59257;2021-05-03 21:22:16:629
-4.37;-10.2191;-4.2341;59306;2021-05-03 21:22:16:678
-4.37;-10.2191;-4.2341;59356;2021-05-03 21:22:16:728
-3.7164;-11.2366;-0.9996;59406;2021-05-03 21:22:16:778
-3.7164;-11.2366;-0.9996;59457;2021-05-03 21:22:16:829
-3.1729;-11.2845;1.6245;59506;2021-05-03 21:22:16:878
-3.1729;-11.2845;1.6245;59556;2021-05-03 21:22:16:928
-4.6358;-6.6684;-2.0075;59606;2021-05-03 21:22:16:978
-4.6358;-6.6684;-2.0075;59656;2021-05-03 21:22:17:028
-2.6845;-6.7642;-2.7354;59706;2021-05-03 21:22:17:078
-2.6845;-6.7642;-2.7354;59757;2021-05-03 21:22:17:129
-3.1873;-7.5447;-5.3905;59807;2021-05-03 21:22:17:179
-3.1873;-7.5447;-5.3905;59856;2021-05-03 21:22:17:228
-4.7004;-9.1201;-5.515;59906;2021-05-03 21:22:17:278
-4.7004;-9.1201;-5.515;59957;2021-05-03 21:22:17:329
-2.9287;-9.757;-0.0395;60006;2021-05-03 21:22:17:378
-2.9287;-9.757;-0.0395;60056;2021-05-03 21:22:17:428
-4.8273;-8.7682;0.9613;60107;2021-05-03 21:22:17:479
-4.8273;-8.7682;0.9613;60157;2021-05-03 21:22:17:529
-5.5001;-7.3556;-0.1353;60206;2021-05-03 21:22:17:578
-5.5001;-7.3556;-0.1353;60256;2021-05-03 21:22:17:628
-5.4761;-8.7706;-1.0068;60307;2021-05-03 21:22:17:679
-5.4761;-8.7706;-1.0068;60356;2021-05-03 21:22:17:728
-3.8289;-8.6006;-0.5734;60406;2021-05-03 21:22:17:778
-3.8289;-8.6006;-0.5734;60457;2021-05-03 21:22:17:829
-5.2511;-9.2255;-0.5279;60506;2021-05-03 21:22:17:878
-5.2511;-9.2255;-0.5279;60556;2021-05-03 21:22:17:928
-6.8121;-9.3069;-2.3978;60606;2021-05-03 21:22:17:978
-6.8121;-9.3069;-2.3978;60656;2021-05-03 21:22:18:028
-3.8864;-8.7777;0.2454;60706;2021-05-03 21:22:18:078
-3.8864;-8.7777;0.2454;60756;2021-05-03 21:22:18:128
-4.0731;-9.3212;0.4369;60806;2021-05-03 21:22:18:178
-4.0731;-9.3212;0.4369;60856;2021-05-03 21:22:18:228
-3.228;-6.9294;-0.3986;60906;2021-05-03 21:22:18:278
-3.228;-6.9294;-0.3986;60956;2021-05-03 21:22:18:328
-2.2799;-5.9669;-1.476;61007;2021-05-03 21:22:18:379
-2.2799;-5.9669;-1.476;61057;2021-05-03 21:22:18:429
-7.1521;-10.2023;-9.0393;61107;2021-05-03 21:22:18:479
-7.1521;-10.2023;-9.0393;61157;2021-05-03 21:22:18:529
-3.7379;-8.9429;-0.1233;61206;2021-05-03 21:22:18:578
-3.7379;-8.9429;-0.1233;61256;2021-05-03 21:22:18:628
-1.2169;-5.8209;0.5495;61306;2021-05-03 21:22:18:678
-1.2169;-5.8209;0.5495;61356;2021-05-03 21:22:18:728
-5.3421;-8.4617;0.018;61407;2021-05-03 21:22:18:779
-5.3421;-8.4617;0.018;61457;2021-05-03 21:22:18:829
-5.8089;-7.8177;-0.6069;61507;2021-05-03 21:22:18:879
-5.8089;-7.8177;-0.6069;61557;2021-05-03 21:22:18:929
-4.5687;-8.3803;-0.5782;61606;2021-05-03 21:22:18:978
-4.5687;-8.3803;-0.5782;61656;2021-05-03 21:22:19:028
-4.7866;-9.2853;-0.5495;61707;2021-05-03 21:22:19:079
-4.7866;-9.2853;-0.5495;61757;2021-05-03 21:22:19:129
-8.0858;-11.1552;-1.421;61807;2021-05-03 21:22:19:179
-8.0858;-11.1552;-1.421;61857;2021-05-03 21:22:19:229
-4.9734;-10.6237;-0.1257;61906;2021-05-03 21:22:19:278
-4.9734;-10.6237;-0.1257;61956;2021-05-03 21:22:19:328
-3.1633;-8.1074;0.5255;62006;2021-05-03 21:22:19:378
-3.1633;-8.1074;0.5255;62056;2021-05-03 21:22:19:428
-2.8473;-6.8145;0.6883;62106;2021-05-03 21:22:19:478
-2.8473;-6.8145;0.6883;62156;2021-05-03 21:22:19:528
-2.0524;-7.2239;-3.3746;62207;2021-05-03 21:22:19:579
-8.5886;-9.836;-8.4886;62256;2021-05-03 21:22:19:628
-8.5886;-9.836;-8.4886;62307;2021-05-03 21:22:19:679
-4.9374;-6.5535;-3.3938;62356;2021-05-03 21:22:19:728
-4.9374;-6.5535;-3.3938;62406;2021-05-03 21:22:19:778
-4.935;-12.5127;0.7386;62456;2021-05-03 21:22:19:828
-4.935;-12.5127;0.7386;62506;2021-05-03 21:22:19:878
-3.0005;-9.0579;0.5758;62557;2021-05-03 21:22:19:929
-3.0005;-9.0579;0.5758;62606;2021-05-03 21:22:19:978
-5.3923;-8.5623;-0.8033;62656;2021-05-03 21:22:20:028
-5.3923;-8.5623;-0.8033;62706;2021-05-03 21:22:20:078
-4.2;-8.5264;-2.5702;62757;2021-05-03 21:22:20:129
-4.2;-8.5264;-2.5702;62807;2021-05-03 21:22:20:179
-4.145;-8.1241;-0.7147;62856;2021-05-03 21:22:20:228
-4.145;-8.1241;-0.7147;62907;2021-05-03 21:22:20:279
-5.1888;-7.8943;-0.0012;62956;2021-05-03 21:22:20:328
-5.1888;-7.8943;-0.0012;63006;2021-05-03 21:22:20:378
-7.7219;-10.5614;-5.4959;63056;2021-05-03 21:22:20:428
-7.7219;-10.5614;-5.4959;63106;2021-05-03 21:22:20:478
-6.6661;-12.5654;0.176;63157;2021-05-03 21:22:20:529
-6.6661;-12.5654;0.176;63206;2021-05-03 21:22:20:578
-3.6111;-5.7563;0.5423;63256;2021-05-03 21:22:20:628
-3.6111;-5.7563;0.5423;63306;2021-05-03 21:22:20:678
-3.7475;-6.4985;0.255;63357;2021-05-03 21:22:20:729
-3.7475;-6.4985;0.255;63407;2021-05-03 21:22:20:779
-1.7484;-9.1105;-5.2349;63456;2021-05-03 21:22:20:828
-1.7484;-9.1105;-5.2349;63506;2021-05-03 21:22:20:878
-6.8217;-8.1696;-6.3363;63556;2021-05-03 21:22:20:928
-6.8217;-8.1696;-6.3363;63606;2021-05-03 21:22:20:978
-4.1306;-9.1057;1.2222;63657;2021-05-03 21:22:21:029
-4.1306;-9.1057;1.2222;63707;2021-05-03 21:22:21:079
-4.9638;-10.7745;0.5543;63756;2021-05-03 21:22:21:128
-4.9638;-10.7745;0.5543;63806;2021-05-03 21:22:21:178
-4.1545;-7.6716;-0.0108;63856;2021-05-03 21:22:21:228
-4.1545;-7.6716;-0.0108;63906;2021-05-03 21:22:21:278
-4.8513;-7.9182;-0.4609;63956;2021-05-03 21:22:21:328
-4.8513;-7.9182;-0.4609;64006;2021-05-03 21:22:21:378
-5.3684;-9.1536;-1.9932;64057;2021-05-03 21:22:21:429
-5.3684;-9.1536;-1.9932;64107;2021-05-03 21:22:21:479
-7.7171;-9.2781;-2.0291;64156;2021-05-03 21:22:21:528
-7.7171;-9.2781;-2.0291;64207;2021-05-03 21:22:21:579
-4.7722;-7.3269;0.5016;64256;2021-05-03 21:22:21:628
-4.7722;-7.3269;0.5016;64306;2021-05-03 21:22:21:678
-5.2415;-16.0777;-0.1041;64357;2021-05-03 21:22:21:729
-5.2415;-16.0777;-0.1041;64407;2021-05-03 21:22:21:779
-1.1378;-4.88;-0.1472;64456;2021-05-03 21:22:21:828
-1.1378;-4.88;-0.1472;64506;2021-05-03 21:22:21:878
-3.398;-7.1473;0.006;64557;2021-05-03 21:22:21:929
-3.398;-7.1473;0.006;64607;2021-05-03 21:22:21:979
-5.2942;-8.8304;-9.1806;64657;2021-05-03 21:22:22:029
-5.2942;-8.8304;-9.1806;64707;2021-05-03 21:22:22:079
-4.947;-8.9358;-4.3419;64757;2021-05-03 21:22:22:129
-4.947;-8.9358;-4.3419;64807;2021-05-03 21:22:22:179
-2.0524;-9.1177;1.4449;64856;2021-05-03 21:22:22:228
-2.0524;-9.1177;1.4449;64906;2021-05-03 21:22:22:278
-3.3453;-8.4114;0.4489;64957;2021-05-03 21:22:22:329
-3.3453;-8.4114;0.4489;65006;2021-05-03 21:22:22:378
-5.4737;-8.421;-0.3747;65056;2021-05-03 21:22:22:428
-5.4737;-8.421;-0.3747;65106;2021-05-03 21:22:22:478
-7.2933;-8.0834;-0.1496;65157;2021-05-03 21:22:22:529
-7.2933;-8.0834;-0.1496;65207;2021-05-03 21:22:22:579
-6.2543;-9.2805;-1.9716;65256;2021-05-03 21:22:22:628
-6.2543;-9.2805;-1.9716;65306;2021-05-03 21:22:22:678
-5.7754;-10.2957;-1.3922;65357;2021-05-03 21:22:22:729
-5.7754;-10.2957;-1.3922;65407;2021-05-03 21:22:22:779
-2.2607;-8.3276;-1.5574;65456;2021-05-03 21:22:22:828
-2.2607;-8.3276;-1.5574;65506;2021-05-03 21:22:22:878
-2.6701;-13.1256;0.6596;65556;2021-05-03 21:22:22:928
-2.6701;-13.1256;0.6596;65606;2021-05-03 21:22:22:978
-2.0524;-6.4649;-0.9158;65657;2021-05-03 21:22:23:029
-2.0524;-6.4649;-0.9158;65706;2021-05-03 21:22:23:078
-3.781;-7.1712;-2.46;65757;2021-05-03 21:22:23:129
-3.781;-7.1712;-2.46;65807;2021-05-03 21:22:23:179
-4.0085;-7.8632;-5.8454;65856;2021-05-03 21:22:23:228
-4.0085;-7.8632;-5.8454;65906;2021-05-03 21:22:23:278
-4.5089;-9.6995;-4.3682;65957;2021-05-03 21:22:23:329
-4.5089;-9.6995;-4.3682;66007;2021-05-03 21:22:23:379
-1.7675;-6.4458;1.2318;66057;2021-05-03 21:22:23:429
-1.7675;-6.4458;1.2318;66107;2021-05-03 21:22:23:479
-4.9997;-9.1488;0.231;66156;2021-05-03 21:22:23:528
-4.9997;-9.1488;0.231;66206;2021-05-03 21:22:23:578
-6.3476;-8.0164;0.1329;66256;2021-05-03 21:22:23:628
-6.3476;-8.0164;0.1329;66306;2021-05-03 21:22:23:678
-6.35;-7.7722;-0.7769;66357;2021-05-03 21:22:23:729
-6.35;-7.7722;-0.7769;66407;2021-05-03 21:22:23:779
-4.7651;-8.8472;-1.2893;66457;2021-05-03 21:22:23:829
-4.7651;-8.8472;-1.2893;66507;2021-05-03 21:22:23:879
-4.7507;-9.9509;-1.3252;66556;2021-05-03 21:22:23:928
-4.7507;-9.9509;-1.3252;66606;2021-05-03 21:22:23:978
-3.1155;-8.1433;-0.6117;66657;2021-05-03 21:22:24:029
-3.1155;-8.1433;-0.6117;66707;2021-05-03 21:22:24:079
-4.5304;-13.0777;0.5614;66756;2021-05-03 21:22:24:128
-4.5304;-13.0777;0.5614;66807;2021-05-03 21:22:24:179
-2.0093;-6.6254;-0.5016;66856;2021-05-03 21:22:24:228
-2.0093;-6.6254;-0.5016;66906;2021-05-03 21:22:24:278
-3.8289;-5.6342;-1.3396;66956;2021-05-03 21:22:24:328
-3.8289;-5.6342;-1.3396;67007;2021-05-03 21:22:24:379
-5.2152;-7.6788;-9.6881;67056;2021-05-03 21:22:24:428
-5.2152;-7.6788;-9.6881;67106;2021-05-03 21:22:24:478
-2.1889;-8.852;-4.4496;67156;2021-05-03 21:22:24:528
-2.1889;-8.852;-4.4496;67207;2021-05-03 21:22:24:579
-2.6127;-7.3149;1.1408;67257;2021-05-03 21:22:24:629
-2.6127;-7.3149;1.1408;67306;2021-05-03 21:22:24:678
-6.0196;-8.5503;0.0251;67356;2021-05-03 21:22:24:728
-6.0196;-8.5503;0.0251;67406;2021-05-03 21:22:24:778
-5.5911;-7.686;-0.31;67457;2021-05-03 21:22:24:829
-5.5911;-7.686;-0.31;67507;2021-05-03 21:22:24:879
-3.6326;-7.99;-0.9756;67557;2021-05-03 21:22:24:929
-3.6326;-7.99;-0.9756;67607;2021-05-03 21:22:24:979
-4.6597;-9.5295;-1.0451;67656;2021-05-03 21:22:25:028
-4.6597;-9.5295;-1.0451;67706;2021-05-03 21:22:25:078
-6.8624;-10.2813;-2.1392;67756;2021-05-03 21:22:25:128
-6.8624;-10.2813;-2.1392;67806;2021-05-03 21:22:25:178
-4.6932;-8.8663;0.4178;67857;2021-05-03 21:22:25:229
-4.6932;-8.8663;0.4178;67906;2021-05-03 21:22:25:278
-4.0755;-8.9597;0.9397;67956;2021-05-03 21:22:25:328
-4.0755;-8.9597;0.9397;68006;2021-05-03 21:22:25:378
-2.7467;-6.7283;-0.5399;68056;2021-05-03 21:22:25:428
-2.7467;-6.7283;-0.5399;68106;2021-05-03 21:22:25:478
-2.469;-6.8624;-2.4026;68157;2021-05-03 21:22:25:529
-2.469;-6.8624;-2.4026;68206;2021-05-03 21:22:25:578
-7.2694;-7.8392;-7.1216;68256;2021-05-03 21:22:25:628
-7.2694;-7.8392;-7.1216;68306;2021-05-03 21:22:25:678
-4.109;-14.0594;-0.31;68356;2021-05-03 21:22:25:728
-4.109;-14.0594;-0.31;68406;2021-05-03 21:22:25:778
-2.7444;-8.986;1.3467;68457;2021-05-03 21:22:25:829
-2.7444;-8.986;1.3467;68507;2021-05-03 21:22:25:879
-4.9039;-7.3963;-0.1401;68556;2021-05-03 21:22:25:928
-4.9039;-7.3963;-0.1401;68606;2021-05-03 21:22:25:978
-6.1106;-7.6836;-0.1784;68657;2021-05-03 21:22:26:029
-6.1106;-7.6836;-0.1784;68707;2021-05-03 21:22:26:079
-4.1498;-8.3372;-0.5902;68756;2021-05-03 21:22:26:128
-4.1498;-8.3372;-0.5902;68806;2021-05-03 21:22:26:178
-5.0835;-8.9621;-0.48;68857;2021-05-03 21:22:26:229
-5.0835;-8.9621;-0.48;68907;2021-05-03 21:22:26:279
-7.8177;-10.5662;-2.0889;68956;2021-05-03 21:22:26:328
-7.8177;-10.5662;-2.0889;69006;2021-05-03 21:22:26:378
-3.5057;-8.3181;0.0227;69056;2021-05-03 21:22:26:428
-3.5057;-8.3181;0.0227;69106;2021-05-03 21:22:26:478
-4.4179;-9.0579;0.0802;69157;2021-05-03 21:22:26:529
-4.4179;-9.0579;0.0802;69207;2021-05-03 21:22:26:579
-4.3892;-5.524;0.2143;69256;2021-05-03 21:22:26:628
-4.3892;-5.524;0.2143;69306;2021-05-03 21:22:26:678
-3.4411;-7.4514;-1.1049;69356;2021-05-03 21:22:26:728
-3.4411;-7.4514;-1.1049;69406;2021-05-03 21:22:26:778
-5.3636;-10.0443;-4.9237;69457;2021-05-03 21:22:26:829
-5.3636;-10.0443;-4.9237;69506;2021-05-03 21:22:26:878
-5.9215;-11.2845;1.3396;69556;2021-05-03 21:22:26:928
-5.9215;-11.2845;1.3396;69606;2021-05-03 21:22:26:978
-1.2025;-6.3093;0.2478;69657;2021-05-03 21:22:27:029
-1.2025;-6.3093;0.2478;69707;2021-05-03 21:22:27:079
-3.7068;-7.6477;0.0658;69756;2021-05-03 21:22:27:128
-3.7068;-7.6477;0.0658;69806;2021-05-03 21:22:27:178
-5.0811;-8.0308;-0.1688;69857;2021-05-03 21:22:27:229
-5.0811;-8.0308;-0.1688;69908;2021-05-03 21:22:27:280
-5.3181;-7.3843;-0.4585;69956;2021-05-03 21:22:27:328
-5.3181;-7.3843;-0.4585;70007;2021-05-03 21:22:27:379
-5.536;-7.1545;-0.6309;70056;2021-05-03 21:22:27:428
-5.536;-7.1545;-0.6309;70106;2021-05-03 21:22:27:478
-4.4275;-8.2367;-4.9165;70156;2021-05-03 21:22:27:528
-4.4275;-8.2367;-4.9165;70207;2021-05-03 21:22:27:579
-1.157;-12.8479;6.9755;70256;2021-05-03 21:22:27:628
-1.157;-12.8479;6.9755;70306;2021-05-03 21:22:27:678
2.2571;1.6107;-8.5461;70356;2021-05-03 21:22:27:728
2.2571;1.6107;-8.5461;70406;2021-05-03 21:22:27:778
1.7759;-12.618;4.5526;70456;2021-05-03 21:22:27:828
1.7759;-12.618;4.5526;70506;2021-05-03 21:22:27:878
-2.1578;-2.8473;-11.412;70556;2021-05-03 21:22:27:928
-2.1578;-2.8473;-11.412;70606;2021-05-03 21:22:27:978
-0.3142;-5.5623;-4.6005;70657;2021-05-03 21:22:28:029
-0.3142;-5.5623;-4.6005;70707;2021-05-03 21:22:28:079
-2.4475;-13.3243;0.7195;70756;2021-05-03 21:22:28:128
-2.4475;-13.3243;0.7195;70807;2021-05-03 21:22:28:179
0.5884;-17.246;3.1184;70856;2021-05-03 21:22:28:228
0.5884;-17.246;3.1184;70906;2021-05-03 21:22:28:278
0.3202;-1.2623;2.3595;70956;2021-05-03 21:22:28:328
0.3202;-1.2623;2.3595;71006;2021-05-03 21:22:28:378
-0.1754;-3.6925;2.8455;71056;2021-05-03 21:22:28:428
-0.1754;-3.6925;2.8455;71106;2021-05-03 21:22:28:478
30.7864;-15.2229;-21.1899;71157;2021-05-03 21:22:28:529
30.7864;-15.2229;-21.1899;71206;2021-05-03 21:22:28:578
6.8827;-11.962;-9.9371;71257;2021-05-03 21:22:28:629
6.8827;-11.962;-9.9371;71307;2021-05-03 21:22:28:679
2.147;-5.2152;-9.5876;71356;2021-05-03 21:22:28:728
2.147;-5.2152;-9.5876;71406;2021-05-03 21:22:28:778
8.8603;-7.7865;-8.8861;71457;2021-05-03 21:22:28:829
8.8603;-7.7865;-8.8861;71507;2021-05-03 21:22:28:879
0.7344;-6.6158;-8.2373;71557;2021-05-03 21:22:28:929
0.7344;-6.6158;-8.2373;71606;2021-05-03 21:22:28:978
3.2028;-5.8688;-8.4934;71656;2021-05-03 21:22:29:028
3.2028;-5.8688;-8.4934;71706;2021-05-03 21:22:29:078
-0.4028;-4.3054;-7.7009;71756;2021-05-03 21:22:29:128
-0.4028;-4.3054;-7.7009;71806;2021-05-03 21:22:29:178
-0.3669;-4.9614;-8.2827;71857;2021-05-03 21:22:29:229
-0.3669;-4.9614;-8.2827;71907;2021-05-03 21:22:29:279
-0.9655;-5.4235;-8.242;71957;2021-05-03 21:22:29:329
-0.9655;-5.4235;-8.242;72007;2021-05-03 21:22:29:379
-1.1091;-5.129;-8.1989;72057;2021-05-03 21:22:29:429
-1.1091;-5.129;-8.1989;72107;2021-05-03 21:22:29:479
-1.5066;-5.6294;-8.266;72156;2021-05-03 21:22:29:528
-1.5066;-5.6294;-8.266;72206;2021-05-03 21:22:29:578
-1.2552;-5.4498;-7.8709;72256;2021-05-03 21:22:29:628
-1.2552;-5.4498;-7.8709;72307;2021-05-03 21:22:29:679
-1.3078;-4.8489;-7.6267;72356;2021-05-03 21:22:29:728
-1.3078;-4.8489;-7.6267;72406;2021-05-03 21:22:29:778
-1.3007;-4.4562;-8.2803;72457;2021-05-03 21:22:29:829
-1.3007;-4.4562;-8.2803;72507;2021-05-03 21:22:29:879
-1.0947;-4.7459;-8.8382;72557;2021-05-03 21:22:29:929
-1.0947;-4.7459;-8.8382;72607;2021-05-03 21:22:29:979
-1.6119;-5.0859;-8.5485;72656;2021-05-03 21:22:30:028
-1.6119;-5.0859;-8.5485;72706;2021-05-03 21:22:30:078
-1.6047;-5.0907;-8.3043;72756;2021-05-03 21:22:30:128
-1.6047;-5.0907;-8.3043;72807;2021-05-03 21:22:30:179
-1.6694;-5.1122;-8.254;72857;2021-05-03 21:22:30:229
-1.6694;-5.1122;-8.254;72906;2021-05-03 21:22:30:278
-1.7244;-4.8369;-8.3594;72956;2021-05-03 21:22:30:328
-1.7244;-4.8369;-8.3594;73006;2021-05-03 21:22:30:378
-1.643;-4.9662;-8.2349;73057;2021-05-03 21:22:30:429
-1.643;-4.9662;-8.2349;73106;2021-05-03 21:22:30:478
-1.5544;-5.0835;-8.3785;73157;2021-05-03 21:22:30:529
-1.5544;-5.0835;-8.3785;73207;2021-05-03 21:22:30:579
-1.7148;-4.935;-8.3761;73256;2021-05-03 21:22:30:628
-1.7148;-4.935;-8.3761;73306;2021-05-03 21:22:30:678
-1.6765;-4.9566;-8.3306;73356;2021-05-03 21:22:30:728
-1.6765;-4.9566;-8.3306;73407;2021-05-03 21:22:30:779
-1.655;-4.9638;-8.3857;73457;2021-05-03 21:22:30:829
-1.655;-4.9638;-8.3857;73507;2021-05-03 21:22:30:879
-1.7172;-5.0212;-8.2971;73556;2021-05-03 21:22:30:928
-1.7172;-5.0212;-8.2971;73606;2021-05-03 21:22:30:978
-1.6406;-5.1409;-8.2875;73656;2021-05-03 21:22:31:028
-1.6406;-5.1409;-8.2875;73707;2021-05-03 21:22:31:079
-1.6789;-5.2056;-8.2971;73757;2021-05-03 21:22:31:129
-1.6789;-5.2056;-8.2971;73807;2021-05-03 21:22:31:179
-1.6933;-4.9638;-8.1175;73856;2021-05-03 21:22:31:228
-1.6933;-4.9638;-8.1175;73906;2021-05-03 21:22:31:278
-1.7627;-5.3469;-8.515;73956;2021-05-03 21:22:31:328
-1.7627;-5.3469;-8.515;74006;2021-05-03 21:22:31:378
-1.7244;-5.1649;-8.333;74056;2021-05-03 21:22:31:428
-1.7244;-5.1649;-8.333;74106;2021-05-03 21:22:31:478
-1.3653;-4.394;-8.4312;74157;2021-05-03 21:22:31:529
-1.3653;-4.394;-8.4312;74207;2021-05-03 21:22:31:579
-1.6502;-4.4011;-8.424;74256;2021-05-03 21:22:31:628
-1.6502;-4.4011;-8.424;74307;2021-05-03 21:22:31:679
-0.8266;-4.1545;-8.57;74356;2021-05-03 21:22:31:728
-0.8266;-4.1545;-8.57;74406;2021-05-03 21:22:31:778
-0.5968;-5.4354;-8.0409;74456;2021-05-03 21:22:31:828
-0.5968;-5.4354;-8.0409;74506;2021-05-03 21:22:31:878
0.2245;-7.2742;-7.6267;74556;2021-05-03 21:22:31:928
0.2245;-7.2742;-7.6267;74606;2021-05-03 21:22:31:978
2.6354;-6.9414;-5.7138;74656;2021-05-03 21:22:32:028
2.6354;-6.9414;-5.7138;74706;2021-05-03 21:22:32:078
3.3369;-8.6676;-8.1535;74757;2021-05-03 21:22:32:129
3.3369;-8.6676;-8.1535;74807;2021-05-03 21:22:32:179
5.4271;-9.235;-2.5175;74856;2021-05-03 21:22:32:228
5.4271;-9.235;-2.5175;74906;2021-05-03 21:22:32:278
2.6953;-8.1217;-0.7171;74956;2021-05-03 21:22:32:328
2.6953;-8.1217;-0.7171;75007;2021-05-03 21:22:32:379
0.313;-9.0603;0.3795;75057;2021-05-03 21:22:32:429
0.313;-9.0603;0.3795;75106;2021-05-03 21:22:32:478
-1.4036;-9.0411;0.8607;75157;2021-05-03 21:22:32:529
-1.4036;-9.0411;0.8607;75206;2021-05-03 21:22:32:578
-2.5361;-10.6237;2.7785;75256;2021-05-03 21:22:32:628
-2.5361;-10.6237;2.7785;75306;2021-05-03 21:22:32:678
0.3418;-11.0786;4.4257;75357;2021-05-03 21:22:32:729
0.3418;-11.0786;4.4257;75406;2021-05-03 21:22:32:778
1.1223;-13.7936;1.6316;75456;2021-05-03 21:22:32:828
1.1223;-13.7936;1.6316;75506;2021-05-03 21:22:32:878
1.2516;-8.2534;1.3012;75556;2021-05-03 21:22:32:928
1.2516;-8.2534;1.3012;75606;2021-05-03 21:22:32:978
4.2156;-14.0905;0.8535;75656;2021-05-03 21:22:33:028
4.2156;-14.0905;0.8535;75707;2021-05-03 21:22:33:079
9.0136;-8.2989;-6.4631;75756;2021-05-03 21:22:33:128
9.0136;-8.2989;-6.4631;75807;2021-05-03 21:22:33:179
5.9179;-7.9254;1.6556;75856;2021-05-03 21:22:33:228
5.9179;-7.9254;1.6556;75906;2021-05-03 21:22:33:278
1.2157;-3.3645;0.9134;75956;2021-05-03 21:22:33:328
1.2157;-3.3645;0.9134;76007;2021-05-03 21:22:33:379
5.2044;-3.3094;-3.3651;76057;2021-05-03 21:22:33:429
5.2044;-3.3094;-3.3651;76107;2021-05-03 21:22:33:479
16.0429;-6.5104;-4.3227;76156;2021-05-03 21:22:33:528
16.0429;-6.5104;-4.3227;76206;2021-05-03 21:22:33:578
7.7518;-9.0914;-0.0946;76256;2021-05-03 21:22:33:628
7.7518;-9.0914;-0.0946;76306;2021-05-03 21:22:33:678
5.8269;-7.437;-4.1001;76356;2021-05-03 21:22:33:728
5.8269;-7.437;-4.1001;76407;2021-05-03 21:22:33:779
4.0049;-8.4689;-2.0147;76457;2021-05-03 21:22:33:829
4.0049;-8.4689;-2.0147;76507;2021-05-03 21:22:33:879
1.9076;-8.5982;-2.3475;76556;2021-05-03 21:22:33:928
1.9076;-8.5982;-2.3475;76607;2021-05-03 21:22:33:979
1.5556;-8.6556;-2.2948;76656;2021-05-03 21:22:34:028
1.5556;-8.6556;-2.2948;76706;2021-05-03 21:22:34:078
0.3609;-7.7123;-2.4433;76756;2021-05-03 21:22:34:128
0.3609;-7.7123;-2.4433;76806;2021-05-03 21:22:34:178
-0.5584;-8.6365;-1.5933;76857;2021-05-03 21:22:34:229
-0.5584;-8.6365;-1.5933;76907;2021-05-03 21:22:34:279
-1.1666;-9.484;-0.9397;76956;2021-05-03 21:22:34:328
-1.1666;-9.484;-0.9397;77006;2021-05-03 21:22:34:378
-2.2727;-11.385;0.3891;77056;2021-05-03 21:22:34:428
-2.2727;-11.385;0.3891;77106;2021-05-03 21:22:34:478
-4.1857;-10.4489;2.6755;77156;2021-05-03 21:22:34:528
-4.1857;-10.4489;2.6755;77207;2021-05-03 21:22:34:579
-1.1378;-8.421;-1.5287;77256;2021-05-03 21:22:34:628
-1.1378;-8.421;-1.5287;77306;2021-05-03 21:22:34:678
-2.9838;-8.67;-1.8447;77356;2021-05-03 21:22:34:728
-2.9838;-8.67;-1.8447;77406;2021-05-03 21:22:34:778
-1.6047;-8.4521;-2.5702;77457;2021-05-03 21:22:34:829
-1.6047;-8.4521;-2.5702;77506;2021-05-03 21:22:34:878
-1.6239;-7.8679;-4.9021;77556;2021-05-03 21:22:34:928
-1.6239;-7.8679;-4.9021;77607;2021-05-03 21:22:34:979
-1.5137;-8.2941;-5.211;77657;2021-05-03 21:22:35:029
-1.5137;-8.2941;-5.211;77706;2021-05-03 21:22:35:078
-5.2511;-11.3539;-3.9253;77756;2021-05-03 21:22:35:128
-5.2511;-11.3539;-3.9253;77806;2021-05-03 21:22:35:178
-1.5377;-7.6525;0.5614;77856;2021-05-03 21:22:35:228
-1.5377;-7.6525;0.5614;77907;2021-05-03 21:22:35:279
-4.9734;-8.8591;0.2263;77956;2021-05-03 21:22:35:328
-4.9734;-8.8591;0.2263;78006;2021-05-03 21:22:35:378
-5.4737;-8.4162;-0.3484;78056;2021-05-03 21:22:35:428
-5.4737;-8.4162;-0.3484;78106;2021-05-03 21:22:35:478
-5.2008;-8.1672;-0.6812;78157;2021-05-03 21:22:35:529
-5.2008;-8.1672;-0.6812;78207;2021-05-03 21:22:35:579
-4.4993;-8.9908;-1.0786;78256;2021-05-03 21:22:35:628
-4.4993;-8.9908;-1.0786;78307;2021-05-03 21:22:35:679
-6.18;-8.5838;-1.0355;78356;2021-05-03 21:22:35:728
-6.18;-8.5838;-1.0355;78406;2021-05-03 21:22:35:778
-4.9662;-8.7203;-0.0826;78456;2021-05-03 21:22:35:828
-4.9662;-8.7203;-0.0826;78506;2021-05-03 21:22:35:878
-4.0588;-12.5726;0.7195;78556;2021-05-03 21:22:35:928
-4.0588;-12.5726;0.7195;78606;2021-05-03 21:22:35:978
-2.6965;-7.2311;0.5231;78656;2021-05-03 21:22:36:028
-2.6965;-7.2311;0.5231;78707;2021-05-03 21:22:36:079
-3.9941;-5.706;-0.7793;78757;2021-05-03 21:22:36:129
-3.9941;-5.706;-0.7793;78806;2021-05-03 21:22:36:178
-2.3349;-8.7203;-8.7927;78856;2021-05-03 21:22:36:228
-2.3349;-8.7203;-8.7927;78907;2021-05-03 21:22:36:279
-2.809;-8.3707;-3.7074;78956;2021-05-03 21:22:36:328
-2.809;-8.3707;-3.7074;79006;2021-05-03 21:22:36:378
-3.1514;-9.7235;1.5048;79056;2021-05-03 21:22:36:428
-3.1514;-9.7235;1.5048;79107;2021-05-03 21:22:36:479
-5.3421;-9.0531;0.31;79157;2021-05-03 21:22:36:529
-5.3421;-9.0531;0.31;79206;2021-05-03 21:22:36:578
-5.1936;-7.7004;-0.346;79257;2021-05-03 21:22:36:629
-5.1936;-7.7004;-0.346;79307;2021-05-03 21:22:36:679
-4.8034;-8.2031;-0.7865;79357;2021-05-03 21:22:36:729
-4.8034;-8.2031;-0.7865;79406;2021-05-03 21:22:36:778
-4.7627;-9.6899;-1.9381;79457;2021-05-03 21:22:36:829
-4.7627;-9.6899;-1.9381;79507;2021-05-03 21:22:36:879
-5.8329;-9.247;-4.5262;79557;2021-05-03 21:22:36:929
-5.8329;-9.247;-4.5262;79607;2021-05-03 21:22:36:979
-6.3309;-10.8822;0.401;79657;2021-05-03 21:22:37:029
-6.3309;-10.8822;0.401;79706;2021-05-03 21:22:37:078
-3.6063;-9.247;1.0139;79756;2021-05-03 21:22:37:128
-3.6063;-9.247;1.0139;79806;2021-05-03 21:22:37:178
-3.3477;-7.2;-0.2502;79856;2021-05-03 21:22:37:228
-3.3477;-7.2;-0.2502;79907;2021-05-03 21:22:37:279
-2.0596;-7.5663;-2.5127;79957;2021-05-03 21:22:37:329
-2.0596;-7.5663;-2.5127;80006;2021-05-03 21:22:37:378
-6.8576;-9.8479;-10.2675;80056;2021-05-03 21:22:37:428
-6.8576;-9.8479;-10.2675;80107;2021-05-03 21:22:37:479
-4.2024;-10.5279;2.4098;80156;2021-05-03 21:22:37:528
-4.2024;-10.5279;2.4098;80206;2021-05-03 21:22:37:578
-4.2024;-10.5279;2.4098;80256;2021-05-03 21:22:37:628
-2.0548;-5.6773;0.3124;80307;2021-05-03 21:22:37:679
-4.7291;-9.1656;-0.1161;80357;2021-05-03 21:22:37:729
-4.7291;-9.1656;-0.1161;80406;2021-05-03 21:22:37:778
-4.7291;-9.1656;-0.1161;80456;2021-05-03 21:22:37:828
-4.777;-7.5447;-0.3388;80506;2021-05-03 21:22:37:878
-4.6501;-8.6485;-2.2709;80557;2021-05-03 21:22:37:929
-4.6501;-8.6485;-2.2709;80607;2021-05-03 21:22:37:979
-4.6501;-8.6485;-2.2709;80657;2021-05-03 21:22:38:029
-5.1553;-8.3971;-0.7649;80706;2021-05-03 21:22:38:078
-5.1553;-8.3971;-0.7649;80756;2021-05-03 21:22:38:128
-8.3612;-10.7027;0.1185;80807;2021-05-03 21:22:38:179
-8.3612;-10.7027;0.1185;80857;2021-05-03 21:22:38:229
-3.3645;-7.0228;-0.2693;80907;2021-05-03 21:22:38:279
-3.3645;-7.0228;-0.2693;80957;2021-05-03 21:22:38:329
-4.9231;-10.3412;-0.6835;81006;2021-05-03 21:22:38:378
-4.9231;-10.3412;-0.6835;81056;2021-05-03 21:22:38:428
-3.0364;-6.9007;-0.0012;81106;2021-05-03 21:22:38:478
-3.0364;-6.9007;-0.0012;81157;2021-05-03 21:22:38:529
-2.7803;-6.9965;-0.4824;81206;2021-05-03 21:22:38:578
-2.7803;-6.9965;-0.4824;81256;2021-05-03 21:22:38:628
-5.5097;-11.804;-12.1829;81306;2021-05-03 21:22:38:678
-5.5097;-11.804;-12.1829;81356;2021-05-03 21:22:38:728
-3.6302;-10.7649;1.2797;81407;2021-05-03 21:22:38:779
-3.6302;-10.7649;1.2797;81457;2021-05-03 21:22:38:829
-2.4475;-6.6086;0.0754;81507;2021-05-03 21:22:38:879
-2.4475;-6.6086;0.0754;81557;2021-05-03 21:22:38:929
-5.2631;-9.0411;-0.1329;81606;2021-05-03 21:22:38:978
-5.2631;-9.0411;-0.1329;81656;2021-05-03 21:22:39:028
-4.5304;-7.8272;-0.3148;81707;2021-05-03 21:22:39:079
-4.5304;-7.8272;-0.3148;81756;2021-05-03 21:22:39:128
-3.9008;-8.2319;-0.5375;81806;2021-05-03 21:22:39:178
-3.9008;-8.2319;-0.5375;81856;2021-05-03 21:22:39:228
-5.0476;-7.9326;-1.1073;81906;2021-05-03 21:22:39:278
-5.0476;-7.9326;-1.1073;81956;2021-05-03 21:22:39:328
-6.1944;-10.2358;-5.4312;82007;2021-05-03 21:22:39:379
-6.1944;-10.2358;-5.4312;82057;2021-05-03 21:22:39:429
-4.947;-12.1871;0.9014;82107;2021-05-03 21:22:39:479
-4.947;-12.1871;0.9014;82157;2021-05-03 21:22:39:529
-1.9399;-8.9477;1.5407;82206;2021-05-03 21:22:39:578
-1.9399;-8.9477;1.5407;82257;2021-05-03 21:22:39:629
-1.8106;-5.8712;0.425;82306;2021-05-03 21:22:39:678
-1.8106;-5.8712;0.425;82357;2021-05-03 21:22:39:729
-2.8665;-7.4514;-3.7457;82406;2021-05-03 21:22:39:778
-2.8665;-7.4514;-3.7457;82456;2021-05-03 21:22:39:828
-6.2183;-11.1169;-5.7664;82506;2021-05-03 21:22:39:878
-6.2183;-11.1169;-5.7664;82556;2021-05-03 21:22:39:928
-5.1122;-12.8311;1.579;82607;2021-05-03 21:22:39:979
-5.1122;-12.8311;1.579;82657;2021-05-03 21:22:40:029
-3.2543;-10.9038;1.2031;82706;2021-05-03 21:22:40:078
-3.2543;-10.9038;1.2031;82756;2021-05-03 21:22:40:128
-3.4482;-7.1114;-0.3053;82806;2021-05-03 21:22:40:178
-3.4482;-7.1114;-0.3053;82856;2021-05-03 21:22:40:228
-5.6485;-8.3133;0.0563;82906;2021-05-03 21:22:40:278
-5.6485;-8.3133;0.0563;82956;2021-05-03 21:22:40:328
-6.3668;-8.6508;-0.3603;83007;2021-05-03 21:22:40:379
-6.3668;-8.6508;-0.3603;83056;2021-05-03 21:22:40:428
-6.7355;-9.3739;-2.1344;83107;2021-05-03 21:22:40:479
-6.7355;-9.3739;-2.1344;83156;2021-05-03 21:22:40:528
-4.1067;-8.6868;0.4417;83206;2021-05-03 21:22:40:578
-4.1067;-8.6868;0.4417;83257;2021-05-03 21:22:40:629
-2.0836;-15.2445;1.3635;83307;2021-05-03 21:22:40:679
-2.0836;-15.2445;1.3635;83357;2021-05-03 21:22:40:729
-0.5776;-7.0132;0.3723;83406;2021-05-03 21:22:40:778
-0.5776;-7.0132;0.3723;83456;2021-05-03 21:22:40:828
-3.9031;-6.3357;-1.7801;83506;2021-05-03 21:22:40:878
-3.9031;-6.3357;-1.7801;83556;2021-05-03 21:22:40:928
-7.0012;-8.3228;-11.5604;83606;2021-05-03 21:22:40:978
-7.0012;-8.3228;-11.5604;83656;2021-05-03 21:22:41:028
-4.9087;-12.0171;0.8751;83707;2021-05-03 21:22:41:079
-4.9087;-12.0171;0.8751;83757;2021-05-03 21:22:41:129
-1.4946;-8.2534;1.2845;83806;2021-05-03 21:22:41:178
-1.4946;-8.2534;1.2845;83856;2021-05-03 21:22:41:228
-3.8648;-7.8919;-0.2167;83906;2021-05-03 21:22:41:278
-3.8648;-7.8919;-0.2167;83956;2021-05-03 21:22:41:328
-5.9167;-8.8208;0.1401;84006;2021-05-03 21:22:41:378
-5.9167;-8.8208;0.1401;84056;2021-05-03 21:22:41:428
-6.3404;-7.7698;-0.2119;84106;2021-05-03 21:22:41:478
-6.3404;-7.7698;-0.2119;84156;2021-05-03 21:22:41:528
-4.9039;-8.773;-1.1097;84207;2021-05-03 21:22:41:579
-4.9039;-8.773;-1.1097;84257;2021-05-03 21:22:41:629
-0.8984;-13.1352;-8.9364;84306;2021-05-03 21:22:41:678
-0.8984;-13.1352;-8.9364;84356;2021-05-03 21:22:41:728
-3.8074;-16.1208;2.5654;84407;2021-05-03 21:22:41:779
-3.8074;-16.1208;2.5654;84457;2021-05-03 21:22:41:829
-1.3677;-6.8241;0.8727;84506;2021-05-03 21:22:41:878
-1.3677;-6.8241;0.8727;84556;2021-05-03 21:22:41:928
-4.6477;-6.3835;-4.6723;84607;2021-05-03 21:22:41:979
-4.6477;-6.3835;-4.6723;84657;2021-05-03 21:22:42:029
-2.4068;-7.176;-6.1878;84706;2021-05-03 21:22:42:078
-2.4068;-7.176;-6.1878;84756;2021-05-03 21:22:42:128
-5.0595;-11.6628;-6.6451;84807;2021-05-03 21:22:42:179
-5.0595;-11.6628;-6.6451;84856;2021-05-03 21:22:42:228
-2.2679;-9.1704;0.4585;84906;2021-05-03 21:22:42:278
-2.2679;-9.1704;0.4585;84956;2021-05-03 21:22:42:328
-5.6796;-9.1249;0.5375;85006;2021-05-03 21:22:42:378
-5.6796;-9.1249;0.5375;85057;2021-05-03 21:22:42:429
-6.0412;-7.3819;-0.4178;85107;2021-05-03 21:22:42:479
-6.0412;-7.3819;-0.4178;85157;2021-05-03 21:22:42:529
-4.4179;-8.5048;-0.5638;85207;2021-05-03 21:22:42:579
-4.4179;-8.5048;-0.5638;85257;2021-05-03 21:22:42:629
-4.3844;-9.836;-0.8152;85306;2021-05-03 21:22:42:678
-4.3844;-9.836;-0.8152;85356;2021-05-03 21:22:42:728
-6.9965;-9.5966;-4.1073;85406;2021-05-03 21:22:42:778
-6.9965;-9.5966;-4.1073;85456;2021-05-03 21:22:42:828
-4.0995;-8.7107;0.7913;85506;2021-05-03 21:22:42:878
-4.0995;-8.7107;0.7913;85557;2021-05-03 21:22:42:929
-5.0284;-10.7123;2.0004;85606;2021-05-03 21:22:42:978
-5.0284;-10.7123;2.0004;85656;2021-05-03 21:22:43:028
-4.0037;-6.8432;-1.16;85707;2021-05-03 21:22:43:079
-4.0037;-6.8432;-1.16;85757;2021-05-03 21:22:43:129
-1.7651;-6.6445;-2.1249;85807;2021-05-03 21:22:43:179
-1.7651;-6.6445;-2.1249;85856;2021-05-03 21:22:43:228
-5.5049;-8.6293;-7.6674;85906;2021-05-03 21:22:43:278
-5.5049;-8.6293;-7.6674;85956;2021-05-03 21:22:43:328
-3.8385;-9.077;-3.9899;86007;2021-05-03 21:22:43:379
-3.8385;-9.077;-3.9899;86056;2021-05-03 21:22:43:428
-1.315;-8.433;0.9206;86107;2021-05-03 21:22:43:479
-1.315;-8.433;0.9206;86157;2021-05-03 21:22:43:529
-4.291;-8.1265;0.231;86206;2021-05-03 21:22:43:578
-4.291;-8.1265;0.231;86256;2021-05-03 21:22:43:628
-6.2566;-8.2941;-0.4657;86306;2021-05-03 21:22:43:678
-6.2566;-8.2941;-0.4657;86356;2021-05-03 21:22:43:728
-4.4873;-8.3324;-0.4872;86407;2021-05-03 21:22:43:779
-4.4873;-8.3324;-0.4872;86457;2021-05-03 21:22:43:829
-4.5472;-8.9501;-0.8894;86507;2021-05-03 21:22:43:879
-4.5472;-8.9501;-0.8894;86557;2021-05-03 21:22:43:929
-6.8504;-10.3723;-0.6931;86606;2021-05-03 21:22:43:978
-6.8504;-10.3723;-0.6931;86656;2021-05-03 21:22:44:028
-6.1896;-10.2645;0.176;86706;2021-05-03 21:22:44:078
-6.1896;-10.2645;0.176;86757;2021-05-03 21:22:44:129
-4.0492;-6.9581;-0.0467;86806;2021-05-03 21:22:44:178
-4.0492;-6.9581;-0.0467;86856;2021-05-03 21:22:44:228
-4.4251;-7.8608;-0.1568;86906;2021-05-03 21:22:44:278
-4.4251;-7.8608;-0.1568;86956;2021-05-03 21:22:44:328
-2.3421;-7.2574;-0.3005;87006;2021-05-03 21:22:44:378
-2.3421;-7.2574;-0.3005;87057;2021-05-03 21:22:44:429
-2.9479;-10.5399;-7.088;87106;2021-05-03 21:22:44:478
-2.9479;-10.5399;-7.088;87156;2021-05-03 21:22:44:528
-5.4115;-10.504;0.4417;87207;2021-05-03 21:22:44:579
-5.4115;-10.504;0.4417;87257;2021-05-03 21:22:44:629
-1.825;-5.9885;-0.3077;87306;2021-05-03 21:22:44:678
-1.825;-5.9885;-0.3077;87356;2021-05-03 21:22:44:728
-6.0914;-9.2374;-0.0611;87406;2021-05-03 21:22:44:778
-6.0914;-9.2374;-0.0611;87456;2021-05-03 21:22:44:828
-4.5807;-7.5423;-0.6093;87506;2021-05-03 21:22:44:878
-4.5807;-7.5423;-0.6093;87556;2021-05-03 21:22:44:928
-3.6877;-8.3204;-0.3915;87607;2021-05-03 21:22:44:979
-3.6877;-8.3204;-0.3915;87657;2021-05-03 21:22:45:029
-5.524;-7.9948;-1.67;87706;2021-05-03 21:22:45:078
-5.524;-7.9948;-1.67;87756;2021-05-03 21:22:45:128
-7.3747;-9.0698;-2.7976;87806;2021-05-03 21:22:45:178
-7.3747;-9.0698;-2.7976;87856;2021-05-03 21:22:45:228
-4.5783;-10.4058;0.6452;87906;2021-05-03 21:22:45:278
-4.5783;-10.4058;0.6452;87956;2021-05-03 21:22:45:328
-1.6454;-9.745;0.6644;88006;2021-05-03 21:22:45:378
-1.6454;-9.745;0.6644;88056;2021-05-03 21:22:45:428
-2.402;-6.8241;-0.2047;88106;2021-05-03 21:22:45:478
-2.402;-6.8241;-0.2047;88156;2021-05-03 21:22:45:528
-2.8305;-7.2359;-4.0306;88207;2021-05-03 21:22:45:579
-2.8305;-7.2359;-4.0306;88257;2021-05-03 21:22:45:629
-6.4171;-8.7107;-7.0018;88306;2021-05-03 21:22:45:678
-6.4171;-8.7107;-7.0018;88356;2021-05-03 21:22:45:728
-3.8553;-13.9301;0.3555;88407;2021-05-03 21:22:45:779
-3.8553;-13.9301;0.3555;88457;2021-05-03 21:22:45:829
-1.3629;-6.4314;0.5112;88506;2021-05-03 21:22:45:878
-1.3629;-6.4314;0.5112;88556;2021-05-03 21:22:45:928
-5.3397;-8.0619;-0.0994;88606;2021-05-03 21:22:45:978
-5.3397;-8.0619;-0.0994;88656;2021-05-03 21:22:46:028
-6.6469;-8.0619;-0.2693;88708;2021-05-03 21:22:46:080
-6.6469;-8.0619;-0.2693;88756;2021-05-03 21:22:46:128
-4.8872;-8.7753;-0.6835;88806;2021-05-03 21:22:46:178
-4.8872;-8.7753;-0.6835;88856;2021-05-03 21:22:46:228
-3.0173;-8.0762;-3.0323;88906;2021-05-03 21:22:46:278
-3.0173;-8.0762;-3.0323;88956;2021-05-03 21:22:46:328
-5.9119;-9.9437;-1.3683;89007;2021-05-03 21:22:46:379
-5.9119;-9.9437;-1.3683;89057;2021-05-03 21:22:46:429
-4.1809;-11.9477;0.6596;89107;2021-05-03 21:22:46:479
-4.1809;-11.9477;0.6596;89157;2021-05-03 21:22:46:529
-1.1905;-8.4761;-0.1018;89206;2021-05-03 21:22:46:578
-1.1905;-8.4761;-0.1018;89256;2021-05-03 21:22:46:628
-1.837;-6.2878;-0.9158;89306;2021-05-03 21:22:46:678
-1.837;-6.2878;-0.9158;89356;2021-05-03 21:22:46:728
-4.0947;-7.7411;-3.0993;89406;2021-05-03 21:22:46:778
-4.0947;-7.7411;-3.0993;89456;2021-05-03 21:22:46:828
-5.7587;-9.2111;-5.0601;89507;2021-05-03 21:22:46:879
-5.7587;-9.2111;-5.0601;89556;2021-05-03 21:22:46:928
-1.9471;-8.9286;0.8272;89606;2021-05-03 21:22:46:978
-1.9471;-8.9286;0.8272;89656;2021-05-03 21:22:47:028
-4.1857;-11.0522;0.8344;89707;2021-05-03 21:22:47:079
-4.1857;-11.0522;0.8344;89756;2021-05-03 21:22:47:128
-5.2247;-8.184;-0.2095;89806;2021-05-03 21:22:47:178
-5.2247;-8.184;-0.2095;89856;2021-05-03 21:22:47:228
-6.4721;-8.1816;-0.0323;89907;2021-05-03 21:22:47:279
-6.4721;-8.1816;-0.0323;89957;2021-05-03 21:22:47:329
-6.1657;-7.3628;-0.6093;90007;2021-05-03 21:22:47:379
-6.1657;-7.3628;-0.6093;90057;2021-05-03 21:22:47:429
-5.1218;-9.35;-2.0889;90107;2021-05-03 21:22:47:479
-5.1218;-9.35;-2.0889;90156;2021-05-03 21:22:47:528
-5.7515;-11.0307;-1.5191;90206;2021-05-03 21:22:47:578
-5.7515;-11.0307;-1.5191;90256;2021-05-03 21:22:47:628
-2.8234;-10.82;0.3938;90306;2021-05-03 21:22:47:678
-2.8234;-10.82;0.3938;90356;2021-05-03 21:22:47:728
-3.3214;-9.3021;0.176;90406;2021-05-03 21:22:47:778
-3.3214;-9.3021;0.176;90457;2021-05-03 21:22:47:829
-2.5624;-6.5104;-2.247;90506;2021-05-03 21:22:47:878
-2.5624;-6.5104;-2.247;90556;2021-05-03 21:22:47:928
-2.0261;-6.9294;-2.8838;90606;2021-05-03 21:22:47:978
-2.0261;-6.9294;-2.8838;90656;2021-05-03 21:22:48:028
-8.1193;-8.9022;-10.0975;90707;2021-05-03 21:22:48:079
-8.1193;-8.9022;-10.0975;90758;2021-05-03 21:22:48:130
-1.5664;-10.1233;1.4593;90806;2021-05-03 21:22:48:178
-1.5664;-10.1233;1.4593;90857;2021-05-03 21:22:48:229
-3.7332;-8.7921;0.3986;90906;2021-05-03 21:22:48:278
-3.7332;-8.7921;0.3986;90956;2021-05-03 21:22:48:328
-5.3636;-7.6477;-0.0778;91006;2021-05-03 21:22:48:378
-5.3636;-7.6477;-0.0778;91056;2021-05-03 21:22:48:428
-6.1729;-8.3444;-0.7338;91107;2021-05-03 21:22:48:479
-6.1729;-8.3444;-0.7338;91157;2021-05-03 21:22:48:529
-4.2599;-8.3109;-0.7554;91206;2021-05-03 21:22:48:578
-4.2599;-8.3109;-0.7554;91256;2021-05-03 21:22:48:628
-4.4538;-9.3284;-1.9453;91307;2021-05-03 21:22:48:679
-4.4538;-9.3284;-1.9453;91357;2021-05-03 21:22:48:729
-6.3596;-9.6492;-1.4976;91406;2021-05-03 21:22:48:778
-6.3596;-9.6492;-1.4976;91456;2021-05-03 21:22:48:828
-5.1386;-11.9118;0.2622;91507;2021-05-03 21:22:48:879
-5.1386;-11.9118;0.2622;91557;2021-05-03 21:22:48:929
-2.2224;-7.4681;1.6891;91607;2021-05-03 21:22:48:979
-2.2224;-7.4681;1.6891;91656;2021-05-03 21:22:49:028
-4.6286;-8.0284;-0.4202;91706;2021-05-03 21:22:49:078
-4.6286;-8.0284;-0.4202;91757;2021-05-03 21:22:49:129
-2.0955;-8.3492;-2.7713;91806;2021-05-03 21:22:49:178
-2.0955;-8.3492;-2.7713;91856;2021-05-03 21:22:49:228
-6.9222;-8.9956;-7.5238;91906;2021-05-03 21:22:49:278
-6.9222;-8.9956;-7.5238;91957;2021-05-03 21:22:49:329
-5.0284;-13.3315;1.5071;92007;2021-05-03 21:22:49:379
-5.0284;-13.3315;1.5071;92056;2021-05-03 21:22:49:428
-3.1562;-8.7682;0.6668;92106;2021-05-03 21:22:49:478
-3.1562;-8.7682;0.6668;92157;2021-05-03 21:22:49:529
-4.2383;-7.0324;-0.2334;92207;2021-05-03 21:22:49:579
-4.2383;-7.0324;-0.2334;92257;2021-05-03 21:22:49:629
-5.6294;-8.5838;-0.5686;92306;2021-05-03 21:22:49:678
-5.6294;-8.5838;-0.5686;92356;2021-05-03 21:22:49:728
-3.0508;-9.4745;-2.1201;92407;2021-05-03 21:22:49:779
-3.0508;-9.4745;-2.1201;92457;2021-05-03 21:22:49:829
-6.3333;-9.3739;-0.9014;92506;2021-05-03 21:22:49:878
-6.3333;-9.3739;-0.9014;92556;2021-05-03 21:22:49:928
-7.5878;-10.4657;-1.7178;92606;2021-05-03 21:22:49:978
-7.5878;-10.4657;-1.7178;92657;2021-05-03 21:22:50:029
-3.1897;-9.7019;0.48;92707;2021-05-03 21:22:50:079
-3.1897;-9.7019;0.48;92756;2021-05-03 21:22:50:128
-3.149;-7.4968;-0.4561;92806;2021-05-03 21:22:50:178
-3.149;-7.4968;-0.4561;92857;2021-05-03 21:22:50:229
-4.2647;-7.1569;-1.2701;92906;2021-05-03 21:22:50:278
-4.2647;-7.1569;-1.2701;92956;2021-05-03 21:22:50:328
-2.0548;-6.8959;-4.9261;93007;2021-05-03 21:22:50:379
-2.0548;-6.8959;-4.9261;93057;2021-05-03 21:22:50:429
-6.9222;-9.8743;-6.3554;93106;2021-05-03 21:22:50:478
-6.9222;-9.8743;-6.3554;93156;2021-05-03 21:22:50:528
-1.7795;-12.0171;-0.0371;93206;2021-05-03 21:22:50:578
-1.7795;-12.0171;-0.0371;93257;2021-05-03 21:22:50:629
-5.0619;-9.01;0.9804;93306;2021-05-03 21:22:50:678
-5.0619;-9.01;0.9804;93356;2021-05-03 21:22:50:728
-5.8305;-6.6038;-0.0874;93406;2021-05-03 21:22:50:778
-5.8305;-6.6038;-0.0874;93457;2021-05-03 21:22:50:829
-5.2271;-8.603;-0.4992;93506;2021-05-03 21:22:50:878
-5.2271;-8.603;-0.4992;93556;2021-05-03 21:22:50:928
-3.1753;-9.5798;-1.1983;93606;2021-05-03 21:22:50:978
-3.1753;-9.5798;-1.1983;93657;2021-05-03 21:22:51:029
-5.6605;-8.3995;-1.4664;93707;2021-05-03 21:22:51:079
-5.6605;-8.3995;-1.4664;93756;2021-05-03 21:22:51:128
-7.0108;-9.0124;-1.8854;93806;2021-05-03 21:22:51:178
-7.0108;-9.0124;-1.8854;93857;2021-05-03 21:22:51:229
-5.9813;-11.7681;0.4322;93906;2021-05-03 21:22:51:278
-5.9813;-11.7681;0.4322;93956;2021-05-03 21:22:51:328
-1.7077;-8.2702;0.5375;94006;2021-05-03 21:22:51:378
-1.7077;-8.2702;0.5375;94057;2021-05-03 21:22:51:429
-2.2751;-7.7339;0.3029;94107;2021-05-03 21:22:51:479
-2.2751;-7.7339;0.3029;94156;2021-05-03 21:22:51:528
-3.3381;-7.2478;-3.0825;94207;2021-05-03 21:22:51:579
-3.3381;-7.2478;-3.0825;94256;2021-05-03 21:22:51:628
-3.1753;-10.8846;-12.1685;94306;2021-05-03 21:22:51:678
-3.1753;-10.8846;-12.1685;94356;2021-05-03 21:22:51:728
-4.0492;-12.6755;1.6484;94406;2021-05-03 21:22:51:778
-4.0492;-12.6755;1.6484;94456;2021-05-03 21:22:51:828
-3.6446;-8.8639;0.4058;94506;2021-05-03 21:22:51:878
-3.6446;-8.8639;0.4058;94557;2021-05-03 21:22:51:929
-5.0691;-6.1872;0.1257;94606;2021-05-03 21:22:51:978
-5.0691;-6.1872;0.1257;94656;2021-05-03 21:22:52:028
-5.8281;-8.512;-0.3172;94706;2021-05-03 21:22:52:078
-5.8281;-8.512;-0.3172;94757;2021-05-03 21:22:52:129
-4.0995;-9.9629;-1.3946;94807;2021-05-03 21:22:52:179
-4.0995;-9.9629;-1.3946;94856;2021-05-03 21:22:52:228
-5.7347;-7.753;-1.3587;94906;2021-05-03 21:22:52:278
-5.7347;-7.753;-1.3587;94957;2021-05-03 21:22:52:329
-7.8967;-10.0993;-0.8033;95006;2021-05-03 21:22:52:378
-7.8967;-10.0993;-0.8033;95057;2021-05-03 21:22:52:429
-4.8297;-10.8344;0.6141;95106;2021-05-03 21:22:52:478
-4.8297;-10.8344;0.6141;95156;2021-05-03 21:22:52:528
-0.0581;-10.0754;1.2318;95207;2021-05-03 21:22:52:579
-0.0581;-10.0754;1.2318;95257;2021-05-03 21:22:52:629
0.5046;-6.6876;0.3292;95307;2021-05-03 21:22:52:679
0.5046;-6.6876;0.3292;95357;2021-05-03 21:22:52:729
-6.7977;-7.7171;-7.8374;95406;2021-05-03 21:22:52:778
-6.7977;-7.7171;-7.8374;95456;2021-05-03 21:22:52:828
-3.386;-10.3459;-3.1232;95506;2021-05-03 21:22:52:878
-3.386;-10.3459;-3.1232;95557;2021-05-03 21:22:52:929
-2.4978;-12.0123;-2.7569;95607;2021-05-03 21:22:52:979
-2.4978;-12.0123;-2.7569;95656;2021-05-03 21:22:53:028
-1.339;-7.1329;0.6596;95706;2021-05-03 21:22:53:078
-1.339;-7.1329;0.6596;95756;2021-05-03 21:22:53:128
-4.6837;-8.6221;1.2198;95806;2021-05-03 21:22:53:178
-4.6837;-8.6221;1.2198;95856;2021-05-03 21:22:53:228
-6.0938;-8.4521;0.3292;95906;2021-05-03 21:22:53:278
-6.0938;-8.4521;0.3292;95957;2021-05-03 21:22:53:329
-6.5775;-8.5264;-0.4154;96007;2021-05-03 21:22:53:379
-6.5775;-8.5264;-0.4154;96056;2021-05-03 21:22:53:428
-5.5384;-7.2287;-0.5255;96107;2021-05-03 21:22:53:479
-5.5384;-7.2287;-0.5255;96156;2021-05-03 21:22:53:528
-5.7922;-9.5942;-1.749;96206;2021-05-03 21:22:53:578
-5.7922;-9.5942;-1.749;96257;2021-05-03 21:22:53:629
-5.287;-9.7139;0.2885;96306;2021-05-03 21:22:53:678
-5.287;-9.7139;0.2885;96356;2021-05-03 21:22:53:728
-3.283;-13.8534;1.8328;96407;2021-05-03 21:22:53:779
-3.283;-13.8534;1.8328;96457;2021-05-03 21:22:53:829
-1.904;-6.7044;-0.3531;96507;2021-05-03 21:22:53:879
-1.904;-6.7044;-0.3531;96556;2021-05-03 21:22:53:928
-4.5424;-6.9174;-1.9381;96606;2021-05-03 21:22:53:978
-4.5424;-6.9174;-1.9381;96657;2021-05-03 21:22:54:029
-3.7212;-7.5543;-6.523;96707;2021-05-03 21:22:54:079
-3.7212;-7.5543;-6.523;96756;2021-05-03 21:22:54:128
-2.742;-11.0451;-6.2788;96806;2021-05-03 21:22:54:178
-2.742;-11.0451;-6.2788;96857;2021-05-03 21:22:54:229
-0.8505;-10.832;0.2263;96906;2021-05-03 21:22:54:278
-0.8505;-10.832;0.2263;96957;2021-05-03 21:22:54:329
-4.0276;-8.3827;0.8655;97007;2021-05-03 21:22:54:379
-4.0276;-8.3827;0.8655;97057;2021-05-03 21:22:54:429
-6.1896;-8.1864;0.2047;97107;2021-05-03 21:22:54:479
-6.1896;-8.1864;0.2047;97157;2021-05-03 21:22:54:529
-5.9957;-7.1186;-0.3986;97207;2021-05-03 21:22:54:579
-5.9957;-7.1186;-0.3986;97257;2021-05-03 21:22:54:629
-5.1457;-8.9286;-0.5662;97306;2021-05-03 21:22:54:678
-5.1457;-8.9286;-0.5662;97356;2021-05-03 21:22:54:728
-3.319;-10.14;-3.8511;97406;2021-05-03 21:22:54:778
-3.319;-10.14;-3.8511;97457;2021-05-03 21:22:54:829
-6.6062;-9.5511;-2.2398;97507;2021-05-03 21:22:54:879
-6.6062;-9.5511;-2.2398;97557;2021-05-03 21:22:54:929
-4.7387;-8.3133;0.48;97607;2021-05-03 21:22:54:979
-4.7387;-8.3133;0.48;97657;2021-05-03 21:22:55:029
-4.5496;-10.8415;-0.267;97707;2021-05-03 21:22:55:079
-4.5496;-10.8415;-0.267;97756;2021-05-03 21:22:55:128
-3.2783;-6.8432;0.583;97806;2021-05-03 21:22:55:178
-3.2783;-6.8432;0.583;97856;2021-05-03 21:22:55:228
-3.2016;-7.4681;-4.8973;97907;2021-05-03 21:22:55:279
-3.2016;-7.4681;-4.8973;97957;2021-05-03 21:22:55:329
-3.4363;-8.2869;-3.1041;98007;2021-05-03 21:22:55:379
-3.4363;-8.2869;-3.1041;98056;2021-05-03 21:22:55:428
-5.7251;-8.5838;-2.8695;98106;2021-05-03 21:22:55:478
-5.7251;-8.5838;-2.8695;98157;2021-05-03 21:22:55:529
-2.3517;-9.0866;0.5543;98207;2021-05-03 21:22:55:579
-2.3517;-9.0866;0.5543;98257;2021-05-03 21:22:55:629
-4.1785;-9.9629;0.3843;98306;2021-05-03 21:22:55:678
-4.1785;-9.9629;0.3843;98357;2021-05-03 21:22:55:729
-5.0572;-8.0308;-0.0299;98407;2021-05-03 21:22:55:779
-5.0572;-8.0308;-0.0299;98457;2021-05-03 21:22:55:829
-4.5185;-8.6987;-1.4856;98507;2021-05-03 21:22:55:879
-4.5185;-8.6987;-1.4856;98557;2021-05-03 21:22:55:929
-5.0763;-9.0004;-1.5694;98607;2021-05-03 21:22:55:979
-5.0763;-9.0004;-1.5694;98657;2021-05-03 21:22:56:029
-7.1952;-9.6109;-1.3994;98707;2021-05-03 21:22:56:079
-7.1952;-9.6109;-1.3994;98757;2021-05-03 21:22:56:129
-4.1186;-7.6908;0.6955;98807;2021-05-03 21:22:56:179
-4.1186;-7.6908;0.6955;98857;2021-05-03 21:22:56:229
-3.6661;-11.6628;1.2246;98906;2021-05-03 21:22:56:278
-3.6661;-11.6628;1.2246;98956;2021-05-03 21:22:56:328
-3.5967;-6.2973;-1.8088;99006;2021-05-03 21:22:56:378
-3.5967;-6.2973;-1.8088;99057;2021-05-03 21:22:56:429
-3.5871;-6.9127;-2.3571;99106;2021-05-03 21:22:56:478
-3.5871;-6.9127;-2.3571;99156;2021-05-03 21:22:56:528
-4.358;-8.6628;-3.5949;99207;2021-05-03 21:22:56:579
-4.358;-8.6628;-3.5949;99256;2021-05-03 21:22:56:628
-4.358;-8.6628;-3.5949;99306;2021-05-03 21:22:56:678
-2.2918;-9.5104;-1.421;99357;2021-05-03 21:22:56:729
-1.8034;-7.3245;-0.583;99407;2021-05-03 21:22:56:779
-1.8034;-7.3245;-0.583;99456;2021-05-03 21:22:56:828
-6.4721;-10.5159;0.65;99506;2021-05-03 21:22:56:878
-6.4721;-10.5159;0.65;99556;2021-05-03 21:22:56:928
-6.4721;-10.5159;0.65;99606;2021-05-03 21:22:56:978
-4.7746;-6.8408;-0.4776;99657;2021-05-03 21:22:57:029
-4.7746;-6.8408;-0.4776;99706;2021-05-03 21:22:57:078
-3.9343;-8.1002;-0.5806;99756;2021-05-03 21:22:57:128
-3.9343;-8.1002;-0.5806;99806;2021-05-03 21:22:57:178
-3.7475;-9.6229;-1.2462;99857;2021-05-03 21:22:57:229
-3.7475;-9.6229;-1.2462;99907;2021-05-03 21:22:57:279
-8.4306;-9.8719;-3.8678;99956;2021-05-03 21:22:57:328
-8.4306;-9.8719;-3.8678;100007;2021-05-03 21:22:57:379
-4.5544;-10.3028;0.753;100056;2021-05-03 21:22:57:428
-4.5544;-10.3028;0.753;100106;2021-05-03 21:22:57:478
-3.0628;-9.891;1.0499;100156;2021-05-03 21:22:57:528
-2.1506;-6.2926;0.5662;100206;2021-05-03 21:22:57:578
-2.1506;-6.2926;0.5662;100256;2021-05-03 21:22:57:628
-2.8784;-7.0635;-1.6316;100307;2021-05-03 21:22:57:679
-2.8784;-7.0635;-1.6316;100357;2021-05-03 21:22:57:729
-4.777;-11.1073;-9.9467;100407;2021-05-03 21:22:57:779
-4.777;-11.1073;-9.9467;100456;2021-05-03 21:22:57:828
-1.8633;-11.3228;-1.5766;100507;2021-05-03 21:22:57:879
-1.8633;-11.3228;-1.5766;100556;2021-05-03 21:22:57:928
-3.2591;-8.4785;0.9014;100606;2021-05-03 21:22:57:978
-3.2591;-8.4785;0.9014;100657;2021-05-03 21:22:58:029
-5.026;-7.0994;-0.3172;100707;2021-05-03 21:22:58:079
-5.026;-7.0994;-0.3172;100756;2021-05-03 21:22:58:128
-5.2295;-8.1002;-0.2143;100806;2021-05-03 21:22:58:178
-5.2295;-8.1002;-0.2143;100856;2021-05-03 21:22:58:228
-4.4921;-9.6181;-0.7721;100907;2021-05-03 21:22:58:279
-4.4921;-9.6181;-0.7721;100957;2021-05-03 21:22:58:329
-6.3237;-9.0387;-4.4257;101007;2021-05-03 21:22:58:379
-6.3237;-9.0387;-4.4257;101056;2021-05-03 21:22:58:428
-5.3085;-10.2957;-2.156;101106;2021-05-03 21:22:58:478
-5.3085;-10.2957;-2.156;101156;2021-05-03 21:22:58:528
-3.6853;-14.9572;0.6548;101206;2021-05-03 21:22:58:578
-3.6853;-14.9572;0.6548;101256;2021-05-03 21:22:58:628
-1.8202;-7.0324;0.7745;101306;2021-05-03 21:22:58:678
-1.8202;-7.0324;0.7745;101357;2021-05-03 21:22:58:729
-2.7108;-6.9246;-0.3699;101407;2021-05-03 21:22:58:779
-2.7108;-6.9246;-0.3699;101456;2021-05-03 21:22:58:828
-5.6988;-9.5319;-11.886;101506;2021-05-03 21:22:58:878
-5.6988;-9.5319;-11.886;101556;2021-05-03 21:22:58:928
-2.4211;-9.1608;-2.484;101606;2021-05-03 21:22:58:978
-2.4211;-9.1608;-2.484;101656;2021-05-03 21:22:59:028
-1.8705;-7.1808;0.7673;101706;2021-05-03 21:22:59:078
-1.8705;-7.1808;0.7673;101757;2021-05-03 21:22:59:129
-5.6126;-10.9972;0.1903;101806;2021-05-03 21:22:59:178
-5.6126;-10.9972;0.1903;101856;2021-05-03 21:22:59:228
-5.5384;-9.2781;0.0036;101906;2021-05-03 21:22:59:278
-5.5384;-9.2781;0.0036;101956;2021-05-03 21:22:59:328
-4.9446;-9.4098;-0.0946;102007;2021-05-03 21:22:59:379
-4.9446;-9.4098;-0.0946;102057;2021-05-03 21:22:59:429
-4.1521;-8.1433;-1.6173;102107;2021-05-03 21:22:59:479
-4.1521;-8.1433;-1.6173;102156;2021-05-03 21:22:59:528
-4.4897;-8.9118;0.2382;102206;2021-05-03 21:22:59:578
-4.4897;-8.9118;0.2382;102256;2021-05-03 21:22:59:628
-3.3094;-10.4992;-0.1472;102306;2021-05-03 21:22:59:678
-3.3094;-10.4992;-0.1472;102356;2021-05-03 21:22:59:728
-1.2815;-11.0139;-3.3124;102406;2021-05-03 21:22:59:778
-1.2815;-11.0139;-3.3124;102457;2021-05-03 21:22:59:829
-1.4132;-10.1113;-0.0323;102507;2021-05-03 21:22:59:879
-1.4132;-10.1113;-0.0323;102557;2021-05-03 21:22:59:929
-1.3198;-10.0515;-2.4026;102607;2021-05-03 21:22:59:979
-1.3198;-10.0515;-2.4026;102657;2021-05-03 21:23:00:029
-0.3789;-10.4345;-4.4329;102706;2021-05-03 21:23:00:078
-0.3789;-10.4345;-4.4329;102756;2021-05-03 21:23:00:128
0.1263;-11.4497;-3.3459;102806;2021-05-03 21:23:00:178
0.1263;-11.4497;-3.3459;102857;2021-05-03 21:23:00:229
4.4885;-9.5271;-0.2478;102907;2021-05-03 21:23:00:279
4.4885;-9.5271;-0.2478;102956;2021-05-03 21:23:00:328
3.38;-6.3165;0.2981;103007;2021-05-03 21:23:00:379
3.38;-6.3165;0.2981;103056;2021-05-03 21:23:00:428
0.6937;-7.8201;7.6626;103106;2021-05-03 21:23:00:478
0.6937;-7.8201;7.6626;103156;2021-05-03 21:23:00:528
2.0464;-5.6557;5.5366;103206;2021-05-03 21:23:00:578
2.0464;-5.6557;5.5366;103256;2021-05-03 21:23:00:628
0.1502;-3.1178;9.8749;103306;2021-05-03 21:23:00:678
0.1502;-3.1178;9.8749;103356;2021-05-03 21:23:00:728
-0.1251;0.3106;9.183;103406;2021-05-03 21:23:00:778
-0.1251;0.3106;9.183;103457;2021-05-03 21:23:00:829
-1.0349;-0.3118;10.1359;103507;2021-05-03 21:23:00:879
-1.0349;-0.3118;10.1359;103556;2021-05-03 21:23:00:928
-2.4954;0.7967;9.5469;103606;2021-05-03 21:23:00:978
-2.4954;0.7967;9.5469;103656;2021-05-03 21:23:01:028
-1.2432;4.7782;5.7138;103706;2021-05-03 21:23:01:078
-1.2432;4.7782;5.7138;103757;2021-05-03 21:23:01:129
-1.0971;4.5867;8.2301;103807;2021-05-03 21:23:01:179
-1.0971;4.5867;8.2301;103857;2021-05-03 21:23:01:229
-0.8051;6.6026;6.2333;103907;2021-05-03 21:23:01:279
-0.8051;6.6026;6.2333;103956;2021-05-03 21:23:01:328
0.5501;7.51;5.9699;104007;2021-05-03 21:23:01:379
0.5501;7.51;5.9699;104057;2021-05-03 21:23:01:429
0.4471;7.0934;7.3658;104106;2021-05-03 21:23:01:478
0.4471;7.0934;7.3658;104157;2021-05-03 21:23:01:529
0.3274;7.6369;5.9029;104207;2021-05-03 21:23:01:579
0.3274;7.6369;5.9029;104256;2021-05-03 21:23:01:628
0.3753;7.7207;5.9077;104307;2021-05-03 21:23:01:679
0.3753;7.7207;5.9077;104357;2021-05-03 21:23:01:729
0.6315;7.6537;6.2812;104406;2021-05-03 21:23:01:778
0.6315;7.6537;6.2812;104456;2021-05-03 21:23:01:828
0.5932;7.6704;6.3817;104506;2021-05-03 21:23:01:878
0.5932;7.6704;6.3817;104556;2021-05-03 21:23:01:928
0.6075;7.6561;6.2884;104606;2021-05-03 21:23:01:978
0.6075;7.6561;6.2884;104657;2021-05-03 21:23:02:029
0.428;7.4478;6.3363;104707;2021-05-03 21:23:02:079
0.428;7.4478;6.3363;104756;2021-05-03 21:23:02:128
0.3537;7.3496;6.5613;104807;2021-05-03 21:23:02:179
0.3537;7.3496;6.5613;104856;2021-05-03 21:23:02:228
0.2221;7.3041;6.4224;104906;2021-05-03 21:23:02:278
0.2221;7.3041;6.4224;104957;2021-05-03 21:23:02:329
0.3537;7.4478;6.5422;105007;2021-05-03 21:23:02:379
0.3537;7.4478;6.5422;105056;2021-05-03 21:23:02:428
0.7344;7.2275;7.3251;105106;2021-05-03 21:23:02:478
0.7344;7.2275;7.3251;105156;2021-05-03 21:23:02:528
-0.3238;6.9641;6.8438;105207;2021-05-03 21:23:02:579
-0.3238;6.9641;6.8438;105256;2021-05-03 21:23:02:628
0.0257;6.9881;6.9851;105307;2021-05-03 21:23:02:679
0.0257;6.9881;6.9851;105356;2021-05-03 21:23:02:728
-0.0054;7.2036;6.8534;105407;2021-05-03 21:23:02:779
-0.0054;7.2036;6.8534;105457;2021-05-03 21:23:02:829
0.0545;7.0647;6.7385;105506;2021-05-03 21:23:02:878
0.0545;7.0647;6.7385;105556;2021-05-03 21:23:02:928
0.1933;7.2371;6.7935;105606;2021-05-03 21:23:02:978
0.1933;7.2371;6.7935;105656;2021-05-03 21:23:03:028